timestamp_seconds,accel_x,accel_y,accel_z,gyro_x,gyro_y,gyro_z
7.090906,0.2449299842119217,0.19367285072803497,-10.587221145629883,0.0,0.0,0.0
7.190913,0.19180884957313538,-0.48705899715423584,-9.608912467956543,0.09005306661128998,-0.2975653111934662,-0.2524442970752716
7.290907,0.004108816385269165,-0.2406230866909027,-8.0759916305542,0.0,0.0,0.0
7.391908,-0.8545823097229004,-0.5154842138290405,-8.208663940429688,0.0,0.0,0.0
7.490907,-0.5376163125038147,0.054402172565460205,-9.014673233032227,0.0,0.0,0.0
7.590907,0.013581748120486736,0.20375525951385498,-9.279133796691895,0.0,0.0,0.0
7.690907,0.020563986152410507,-0.3576892614364624,-9.147295951843262,0.0,0.0,0.0
7.790908,-0.24832674860954285,0.0389605313539505,-9.251932144165039,-0.03186250105500221,-0.04228517413139343,0.08223782479763031
7.890913,-0.28455865383148193,-0.13461312651634216,-9.39185905456543,0.05455467849969864,-0.05686638131737709,-0.07444283366203308
7.990907,-0.18781501054763794,-0.4091135859489441,-9.219341278076172,0.0,0.0,0.0
8.091938,-0.24034203588962555,-0.29952114820480347,-9.379308700561523,0.0,0.0,0.0
8.190908,0.03914649039506912,-0.21077662706375122,-9.176984786987305,-0.04424305260181427,0.039055321365594864,-7.631344487890601e-06
8.290907,-0.17362956702709198,-0.13741925358772278,-9.205330848693848,0.0,0.0,0.0
8.390907,-0.13457714021205902,-0.39932504296302795,-9.21733283996582,0.017986882477998734,-0.06184253841638565,0.08069969713687897
8.490907,-0.09999248385429382,-0.33855533599853516,-9.31152629852295,-0.08384308964014053,0.06065913289785385,0.08956798911094666
8.590909,0.1110951155424118,-0.03224761784076691,-9.343433380126953,-0.059736333787441254,-0.011177949607372284,-0.00016269562183879316
8.690907,-0.05262593552470207,-0.05128826946020126,-9.220773696899414,0.029396604746580124,-0.08664679527282715,0.0563029870390892
8.791909,-0.15805548429489136,-0.10454842448234558,-9.264999389648438,0.0,0.0,0.0
8.890907,-0.05780928581953049,-0.14468905329704285,-9.312870979309082,0.04078996926546097,-0.04921511560678482,0.03671818971633911
8.990907,-0.19540908932685852,-0.29017913341522217,-9.419130325317383,0.05900796502828598,-0.11073172837495804,0.008750788867473602
9.091907,-0.3206068277359009,-0.39716392755508423,-9.501816749572754,0.0,0.0,0.0
9.190907,-0.24716150760650635,-0.31468066573143005,-9.276650428771973,-0.08708842843770981,0.025690384209156036,0.04770694673061371
9.290922,-0.46492382884025574,-0.12388423085212708,-9.21135139465332,0.1101430281996727,-0.11015684902667999,0.005103715695440769
9.390907,-0.49295276403427124,-0.3824809789657593,-9.221822738647461,-0.06521911919116974,0.058959756046533585,-0.01435335073620081
9.490916,0.1365513652563095,-0.351532518863678,-9.08238410949707,-0.02068672887980938,0.0017981822602450848,0.018203342333436012
9.590921,-0.16926386952400208,-0.048622991889715195,-8.972213745117188,-0.03619761765003204,-0.033591918647289276,0.01711973361670971
9.690926,-0.1453561931848526,-0.06426350772380829,-9.107542037963867,0.08454829454421997,0.03774474561214447,0.06531946361064911
9.790933,-0.0834587961435318,-0.5226486921310425,-9.614217758178711,0.09315822273492813,0.0032170386984944344,0.05293381214141846
9.891907,-0.2985020577907562,-0.9047703742980957,-8.948254585266113,0.0,0.0,0.0
9.990925,-0.14891012012958527,-0.1581951230764389,-9.760732650756836,0.0064226011745631695,0.06882557272911072,-0.005994156002998352
10.090907,-0.07515895366668701,-0.3234524130821228,-9.355201721191406,0.08806843310594559,-0.048195406794548035,-0.009850198403000832
10.191909,-0.42305609583854675,-1.2966930866241455,-9.299966812133789,0.0,0.0,0.0
10.291937,0.06085781753063202,-0.762070894241333,-9.189957618713379,0.0,0.0,0.0
10.391935,-0.13577714562416077,-0.36247628927230835,-8.7564115524292,0.0,0.0,0.0
10.491949,0.059975773096084595,-0.2210478037595749,-9.356341361999512,0.0,0.0,0.0
10.591948,-0.2747955620288849,-0.210301473736763,-9.53567886352539,0.0,0.0,0.0
10.691944,0.04369460046291351,-0.43592336773872375,-8.889752388000488,-0.07872160524129868,-0.10066910088062286,0.04353845864534378
10.791907,0.09926249086856842,-0.17504718899726868,-9.504895210266113,0.0,0.0,0.0
10.891907,-0.19502043724060059,-0.3968159854412079,-10.45242977142334,-0.06931202113628387,0.049699291586875916,0.024250658228993416
10.991907,-0.3330302834510803,-0.6886917352676392,-9.960387229919434,-0.12350019067525864,-0.04785865172743797,0.00048230390530079603
11.091934,-0.32724177837371826,-0.6719692349433899,-9.867594718933105,0.10121291875839233,-0.13714687526226044,-0.011707497760653496
11.191908,-1.1582655906677246,-0.6740298867225647,-10.69662857055664,-0.08783765882253647,0.003498480888083577,0.005697757937014103
11.292908,-0.9330651164054871,-0.5389672517776489,-10.60523796081543,0.0,0.0,0.0
11.39291,-0.3720167875289917,-0.8813462853431702,-10.539668083190918,0.0,0.0,0.0
11.492907,-0.9837759733200073,-0.7446122169494629,-9.344928741455078,0.0,0.0,0.0
11.592907,-0.7156186103820801,-0.5480393171310425,-8.755661010742188,0.0,0.0,0.0
11.692909,-0.5505613684654236,-0.18780025839805603,-7.996215343475342,0.0,0.0,0.0
11.792909,-0.30728253722190857,-0.02266167849302292,-7.177009582519531,0.0,0.0,0.0
11.892907,-0.06522379070520401,0.16964766383171082,-6.984435081481934,0.0,0.0,0.0
11.992907,-0.045716747641563416,0.3021669089794159,-9.099998474121094,0.0,0.0,0.0
12.092907,0.28641942143440247,0.14090046286582947,-8.793011665344238,0.0,0.0,0.0
12.192907,0.3992428779602051,0.1004474014043808,-9.50148868560791,0.0,0.0,0.0
12.292907,0.3726530075073242,-0.17943856120109558,-10.691750526428223,0.0,0.0,0.0
12.392911,0.29732105135917664,-0.3438376784324646,-9.886580467224121,0.0,0.0,0.0
12.492907,-0.4565361738204956,-0.35144495964050293,-10.669757843017578,0.0,0.0,0.0
12.592907,-0.45226985216140747,-0.37560734152793884,-10.031250953674316,0.0,0.0,0.0
12.692907,-0.3657781183719635,-0.11946488916873932,-10.308982849121094,-0.12319128215312958,0.19422218203544617,0.07503166794776917
12.792909,-0.43555134534835815,-0.47298097610473633,-10.468280792236328,0.0,0.0,0.0
12.892911,-0.4622208774089813,-0.6511144638061523,-9.40145492553711,-0.041952457278966904,-0.00506157660856843,0.07935057580471039
12.992907,-0.5318829417228699,-0.6473444700241089,-9.293821334838867,0.0,0.0,0.0
13.092912,-0.45665034651756287,-0.5429993867874146,-9.022838592529297,0.0,0.0,0.0
13.192907,-0.501041054725647,-0.5599479079246521,-9.259786605834961,0.0,0.0,0.0
13.292907,-0.6961001753807068,-0.607513427734375,-9.58867073059082,0.14226198196411133,-0.0432097390294075,-0.03098871372640133
13.393907,-0.6273924708366394,-0.6850980520248413,-9.582962036132812,0.0,0.0,0.0
13.492907,-0.09289837628602982,-0.44678059220314026,-9.17374038696289,0.09036653488874435,-0.09400831162929535,-0.01341269165277481
13.592912,-0.5177372097969055,-0.45990341901779175,-9.816085815429688,-0.021717507392168045,-0.08669734001159668,0.029721371829509735
13.692918,-0.17473654448986053,-0.45981311798095703,-9.093878746032715,0.014622876420617104,-0.10423650592565536,0.06034248322248459
13.793907,-0.30092355608940125,-0.11849705874919891,-10.130133628845215,0.0,0.0,0.0
13.893907,-0.2802952229976654,-0.7687488794326782,-8.960376739501953,0.0,0.0,0.0
13.993905,-0.2790948450565338,-0.8228762745857239,-9.682600975036621,0.0,0.0,0.0
14.09391,-0.33963868021965027,-0.7027809619903564,-9.23796558380127,0.0,0.0,0.0
14.193916,-0.41266268491744995,-0.6085031628608704,-9.171346664428711,0.0,0.0,0.0
14.293921,-0.17419636249542236,-0.15903286635875702,-9.477975845336914,0.0,0.0,0.0
14.393926,-0.3063425123691559,-0.3102421760559082,-9.817254066467285,0.0,0.0,0.0
14.493907,-0.40366220474243164,-0.5090366005897522,-9.121986389160156,0.0,0.0,0.0
14.593907,-0.36168453097343445,-0.2546747624874115,-10.432438850402832,0.0,0.0,0.0
14.693907,-0.3543359935283661,-0.45512762665748596,-8.407296180725098,0.0,0.0,0.0
14.793907,-0.43138545751571655,-0.25694602727890015,-9.444395065307617,0.0,0.0,0.0
14.893907,-0.15014269948005676,-0.5619911551475525,-8.51177978515625,0.0,0.0,0.0
14.993908,-0.2571767270565033,-0.4326377511024475,-9.661626815795898,-0.04919266700744629,0.0023448148276656866,0.10058515518903732
15.093906,-0.5001723766326904,-0.39809903502464294,-8.748167037963867,0.0,0.0,0.0
15.193907,-0.5321496725082397,-0.4921662211418152,-8.249366760253906,0.0,0.0,0.0
15.293907,-0.3055419325828552,-1.0465168952941895,-9.25655746459961,0.0,0.0,0.0
15.393907,-0.3209569454193115,-0.44180768728256226,-9.227306365966797,-0.07453063875436783,-0.038435645401477814,0.11732501536607742
15.493908,-0.072957843542099,-0.25685223937034607,-9.400225639343262,-0.04270129278302193,0.0013963051605969667,0.09988883882761002
15.593907,-0.11982383579015732,-0.25965872406959534,-9.151483535766602,0.0,0.0,0.0
15.693906,-0.23641717433929443,-0.38454145193099976,-9.722472190856934,0.0,0.0,0.0
15.793907,-0.08882805705070496,-0.7508859038352966,-9.575878143310547,0.0,0.0,0.0
15.893907,-0.12529516220092773,-0.7064990997314453,-9.310249328613281,-0.017070289701223373,-0.04059465602040291,0.018859509378671646
15.993944,-0.13153353333473206,-0.30932021141052246,-9.514251708984375,-0.05322657525539398,0.029894981533288956,-0.0004276097461115569
16.093949,-0.2849482595920563,-0.5412427186965942,-8.372180938720703,-0.04195558652281761,-0.06548935174942017,0.002505273325368762
16.194908,-0.27517247200012207,-0.8174421787261963,-8.04816722869873,0.0,0.0,0.0
16.293907,-0.05633159726858139,-0.7117052674293518,-9.326446533203125,-0.040981702506542206,0.061618268489837646,0.025450123474001884
16.393907,-0.48207682371139526,-0.7144362926483154,-9.237186431884766,-0.005796095356345177,-0.13749702274799347,0.05955386161804199
16.493907,-0.26860514283180237,-0.45838677883148193,-9.618189811706543,-0.036273881793022156,-0.030791031196713448,0.04526636376976967
16.593908,0.2025378793478012,-0.13734808564186096,-10.857861518859863,-0.05147743225097656,0.02412155456840992,0.04481666162610054
16.693907,0.21951158344745636,-0.42929887771606445,-9.91018295288086,0.03809493035078049,-0.12768873572349548,0.047301843762397766
16.793908,-0.053252991288900375,-0.5616816282272339,-9.48751163482666,0.07371330261230469,-0.10263894498348236,0.0388026125729084
16.893907,-0.5272852182388306,-1.0482133626937866,-7.3053483963012695,0.06540162861347198,-0.045217569917440414,0.018954727798700333
16.993908,-0.500942587852478,-0.9291303157806396,-7.7307233810424805,-0.15560409426689148,0.1800183653831482,0.03471823036670685
17.093907,-0.28142908215522766,-0.140470951795578,-10.500639915466309,-0.07896696031093597,0.0779513493180275,0.05047827959060669
17.194908,-0.24350175261497498,-0.6539260149002075,-8.924173355102539,0.0,0.0,0.0
17.293907,-0.521170437335968,-0.5969788432121277,-8.972616195678711,-0.05893360823392868,0.041422583162784576,0.0336761437356472
17.394907,-0.05044218525290489,-0.045454125851392746,-10.003292083740234,0.0,0.0,0.0
17.494917,-0.026228277012705803,-0.31043341755867004,-9.594339370727539,0.0,0.0,0.0
17.594907,-0.23202237486839294,-0.7497657537460327,-8.806660652160645,0.0,0.0,0.0
17.69491,-0.009856079705059528,-0.6114197969436646,-10.00609016418457,0.0,0.0,0.0
17.794907,0.13756804168224335,-0.3888821303844452,-9.902471542358398,0.0,0.0,0.0
17.894907,-0.24538323283195496,-0.22038406133651733,-10.137284278869629,0.0,0.0,0.0
17.994907,-0.6038365364074707,-0.2736065983772278,-10.68713665008545,0.0,0.0,0.0
18.094907,-0.49414461851119995,-0.49000656604766846,-9.524637222290039,0.0,0.0,0.0
18.194909,-0.44110867381095886,-0.26180052757263184,-8.907078742980957,0.0,0.0,0.0
18.294909,-0.28177502751350403,-0.5149384140968323,-9.144509315490723,0.0,0.0,0.0
18.394907,-0.07400064170360565,-0.6275724172592163,-10.134176254272461,0.0,0.0,0.0
18.49491,0.10879100859165192,-0.5889461040496826,-10.090381622314453,0.0,0.0,0.0
18.595907,-0.19352413713932037,-0.5811899900436401,-9.402324676513672,0.0,0.0,0.0
18.695907,-0.4597991406917572,-0.2828270196914673,-9.88560962677002,0.0,0.0,0.0
18.795907,-0.4736616313457489,-0.6262974739074707,-9.683212280273438,0.0,0.0,0.0
18.894907,-0.5155574083328247,-0.6401532888412476,-9.348423957824707,0.0,0.0,0.0
18.995907,-0.10117258131504059,-0.37134554982185364,-9.238961219787598,0.0,0.0,0.0
19.095909,-0.33698928356170654,-0.27643558382987976,-8.606995582580566,0.0,0.0,0.0
19.195908,-0.41625815629959106,-0.24043473601341248,-9.17153549194336,0.0,0.0,0.0
19.295906,-0.5382491946220398,-0.7347372174263,-8.341283798217773,0.0,0.0,0.0
19.395907,-0.1628725230693817,-0.8189668655395508,-9.172456741333008,0.0,0.0,0.0
19.495907,-0.310748815536499,-0.41590335965156555,-8.056343078613281,0.0,0.0,0.0
19.595907,-0.31979605555534363,-0.2774631977081299,-8.718910217285156,0.0,0.0,0.0
19.695926,-0.47645995020866394,-0.7363060712814331,-7.668255805969238,0.0,0.0,0.0
19.795938,-0.247094988822937,-0.7557402849197388,-8.028002738952637,0.0,0.0,0.0
19.895948,-0.090732142329216,-0.5051096677780151,-9.513869285583496,0.0,0.0,0.0
19.995954,-0.11564991623163223,-0.5556333065032959,-9.070079803466797,0.0,0.0,0.0
20.095907,-0.14019444584846497,-0.4528273940086365,-9.179206848144531,0.0,0.0,0.0
20.196907,-0.3909514844417572,-0.4452633559703827,-9.078783988952637,0.0,0.0,0.0
20.295906,-0.33434462547302246,-0.5788980722427368,-8.951733589172363,0.0,0.0,0.0
20.395906,0.11821547150611877,-0.19877159595489502,-10.181127548217773,0.0,0.0,0.0
20.496907,-0.3476983308792114,-0.5028409361839294,-8.60124397277832,0.0,0.0,0.0
20.595907,0.18072877824306488,-0.30526256561279297,-9.729681015014648,0.0,0.0,0.0
20.69591,0.04936749115586281,-0.1357448846101761,-9.910038948059082,0.0,0.0,0.0
20.795907,-0.08375631272792816,-0.33171623945236206,-9.822402954101562,0.0,0.0,0.0
20.896907,-0.48153525590896606,-0.6153866052627563,-7.8037614822387695,0.0,0.0,0.0
20.995907,-0.626642644405365,-0.5212531685829163,-7.175686836242676,0.0,0.0,0.0
21.095906,-0.13635841012001038,-0.1819010078907013,-10.306819915771484,0.0,0.0,0.0
21.196908,-0.36593320965766907,-0.5057402849197388,-9.362547874450684,0.0,0.0,0.0
21.295906,-0.44738563895225525,-0.38703006505966187,-8.840576171875,0.0,0.0,0.0
21.395907,0.006019944325089455,-0.4741273522377014,-9.50791072845459,0.0,0.0,0.0
21.496911,0.05000170320272446,-0.3762834072113037,-9.832379341125488,0.0,0.0,0.0
21.596907,0.2314465045928955,-0.42389169335365295,-10.20944595336914,0.0,0.0,0.0
21.696907,-0.13424760103225708,-0.31253597140312195,-10.21613883972168,0.0,0.0,0.0
21.796907,-0.19915851950645447,-0.09932533651590347,-9.921059608459473,0.0,0.0,0.0
21.896927,-0.04476984962821007,-0.38378822803497314,-9.552580833435059,0.0,0.0,0.0
21.996932,-0.8858620524406433,-0.14787526428699493,-8.394908905029297,0.0,0.0,0.0
22.096938,-0.44819480180740356,-0.28802490234375,-9.405988693237305,0.0,0.0,0.0
22.196944,-0.7281942963600159,-0.17567178606987,-10.124591827392578,0.0,0.0,0.0
22.296941,-0.612080454826355,-0.49109935760498047,-7.025233268737793,0.0,0.0,0.0
22.396907,-0.6839561462402344,-0.5074322819709778,-7.723076820373535,0.0,0.0,0.0
22.496907,-0.11646099388599396,-0.46523356437683105,-10.335095405578613,0.0,0.0,0.0
22.596907,-0.7199752926826477,-0.22156275808811188,-9.903339385986328,0.0,0.0,0.0
22.696907,-0.38173431158065796,-0.37122678756713867,-8.8403902053833,0.0,0.0,0.0
22.79691,-0.14258834719657898,-0.03014090284705162,-9.58005142211914,0.0,0.0,0.0
22.896925,0.004964113235473633,-0.27544113993644714,-9.614140510559082,0.0,0.0,0.0
22.996936,-0.203184112906456,0.003633219748735428,-10.167014122009277,0.0,0.0,0.0
23.096938,0.18131089210510254,-0.19064320623874664,-10.123861312866211,0.0,0.0,0.0
23.196958,-0.015346314758062363,-0.45380571484565735,-10.690397262573242,0.0,0.0,0.0
23.296925,0.11940985918045044,-0.01846994459629059,-10.213791847229004,0.0,0.0,0.0
23.397907,-0.056992460042238235,-0.261627733707428,-10.25278091430664,0.0,0.0,0.0
23.497907,0.19620868563652039,-0.2802659571170807,-10.209280014038086,0.0,0.0,0.0
23.597907,-0.8785867691040039,-0.48632287979125977,-4.661258697509766,0.0,0.0,0.0
23.697907,-0.1558598279953003,-0.64829421043396,-9.23793888092041,0.0,0.0,0.0
23.797907,0.28534650802612305,-0.34868124127388,-10.461963653564453,0.0,0.0,0.0
23.897907,0.20924276113510132,-0.317152202129364,-10.756351470947266,0.0,0.0,0.0
23.997907,0.006221337243914604,-0.0914614349603653,-9.94786548614502,0.0,0.0,0.0
24.097907,-0.21916450560092926,-0.06531855463981628,-9.344934463500977,0.0,0.0,0.0
24.197907,-0.2556266188621521,-0.6317199468612671,-7.5446038246154785,0.0,0.0,0.0
24.297912,-0.5749416351318359,-0.7131356000900269,-8.136438369750977,0.0,0.0,0.0
24.397907,-0.17070868611335754,-0.38759154081344604,-10.306658744812012,0.0,0.0,0.0
24.498921,0.017080146819353104,-0.5178173780441284,-9.217228889465332,0.0,0.0,0.0
24.598923,-0.29429328441619873,-0.516420841217041,-8.5894136428833,0.0,0.0,0.0
24.698937,0.24468538165092468,-0.0778631865978241,-10.359526634216309,0.0,0.0,0.0
24.798936,0.07650390267372131,-0.4622771143913269,-8.79953384399414,0.0,0.0,0.0
24.898942,-0.3342532515525818,-0.6773527264595032,-9.053386688232422,0.0,0.0,0.0
24.998945,-0.28381600975990295,-0.25566521286964417,-9.044656753540039,0.0,0.0,0.0
25.098951,-0.012567967176437378,-0.564970850944519,-8.783409118652344,0.0,0.0,0.0
25.198957,-0.2276986986398697,-0.46091195940971375,-9.418529510498047,0.0,0.0,0.0
25.298954,-0.07217442989349365,-0.35227108001708984,-9.625495910644531,0.0,0.0,0.0
25.398907,-0.20677915215492249,-0.5785400867462158,-9.021953582763672,0.0,0.0,0.0
25.498906,-0.0858440101146698,-0.5226422548294067,-9.137414932250977,0.0,0.0,0.0
25.598907,0.10227607190608978,-0.3538168966770172,-9.406182289123535,0.0,0.0,0.0
25.698907,-0.052128709852695465,-0.3840901851654053,-8.950602531433105,0.0,0.0,0.0
25.798907,0.11378450691699982,-0.41203123331069946,-9.607075691223145,0.0,0.0,0.0
25.898914,0.22126762568950653,-0.2667234539985657,-9.35212230682373,0.0,0.0,0.0
25.998907,-0.17953583598136902,-0.801932692527771,-8.962911605834961,0.0,0.0,0.0
26.098907,-0.004706971812993288,-0.5262778997421265,-9.615395545959473,0.0,0.0,0.0
26.198907,-0.20405183732509613,-0.3877979516983032,-9.180864334106445,0.0,0.0,0.0
26.298907,-0.38909173011779785,-0.4390726089477539,-9.044580459594727,0.0,0.0,0.0
26.398907,-0.2964204251766205,-0.2640381157398224,-9.761466979980469,0.0,0.0,0.0
26.498906,0.1248432844877243,-0.22830909490585327,-9.091768264770508,0.0,0.0,0.0
26.598928,0.22852873802185059,-0.5518592596054077,-8.740581512451172,0.0,0.0,0.0
26.698907,-0.05706663057208061,-0.594062328338623,-9.43511962890625,0.0,0.0,0.0
26.798921,-0.13277386128902435,-0.6500011682510376,-9.004096031188965,0.0,0.0,0.0
26.898906,-0.19608111679553986,-0.2306298315525055,-9.59997272491455,0.0,0.0,0.0
26.998907,0.29212433099746704,-0.5554294586181641,-9.23044490814209,0.0,0.0,0.0
27.098907,-0.005387181416153908,-0.8639563322067261,-9.120768547058105,0.0,0.0,0.0
27.198907,-0.3261381983757019,-0.5531134009361267,-9.313698768615723,0.0,0.0,0.0
27.299907,0.061924971640110016,-0.621781587600708,-9.179183959960938,0.0,0.0,0.0
27.398906,0.04679616913199425,-0.4570891857147217,-9.855046272277832,0.0,0.0,0.0
27.498907,0.060341544449329376,-0.5586445927619934,-8.879541397094727,0.0,0.0,0.0
27.598907,-0.2838061451911926,-0.5489777326583862,-9.66815185546875,0.0,0.0,0.0
27.698909,-0.01630042865872383,-0.7873154282569885,-9.159278869628906,0.0,0.0,0.0
27.798907,0.08679455518722534,-0.5758484601974487,-9.417750358581543,0.0,0.0,0.0
27.899908,0.14301809668540955,-1.100169062614441,-8.833390235900879,0.0,0.0,0.0
27.998907,-0.0020726630464196205,-0.6367142200469971,-9.781570434570312,0.0,0.0,0.0
28.098907,-0.11706465482711792,-0.66425621509552,-9.957683563232422,0.0,0.0,0.0
28.198913,-0.28020820021629333,-0.7277423143386841,-9.106975555419922,0.0,0.0,0.0
28.298906,-0.29174700379371643,-0.6120650768280029,-9.45854663848877,0.0,0.0,0.0
28.399907,-0.011795233935117722,-0.40752896666526794,-9.552472114562988,0.0,0.0,0.0
28.498907,-0.12087821960449219,-0.41496387124061584,-9.563108444213867,0.0,0.0,0.0
28.59991,-0.08043213188648224,-0.6755220293998718,-8.834052085876465,0.0,0.0,0.0
28.698915,-0.16332313418388367,-0.3869458734989166,-9.430929183959961,0.0,0.0,0.0
28.798906,-0.023567719385027885,-0.36083024740219116,-9.263669967651367,0.0,0.0,0.0
28.898907,0.21363681554794312,-0.3408668637275696,-9.809770584106445,0.0,0.0,0.0
28.998907,0.4192274212837219,-0.4305296838283539,-9.428202629089355,0.0,0.0,0.0
29.098907,0.01609603315591812,-0.4132365584373474,-9.518829345703125,0.0,0.0,0.0
29.198907,-0.002379479818046093,-0.41907885670661926,-10.037269592285156,0.0,0.0,0.0
29.298907,-0.17181427776813507,-0.5827305912971497,-8.813342094421387,0.0,0.0,0.0
29.398907,0.1444544792175293,-0.25042831897735596,-9.250797271728516,0.0,0.0,0.0
29.498907,0.3066883683204651,-0.3720912039279938,-9.725367546081543,0.0,0.0,0.0
29.598908,0.03826310858130455,-0.5330210328102112,-9.164169311523438,0.0,0.0,0.0
29.698911,-0.17847725749015808,-0.3214315176010132,-9.3270263671875,0.0,0.0,0.0
29.798907,0.22200296819210052,-0.08414135873317719,-9.359968185424805,0.0,0.0,0.0
29.898907,0.09416526556015015,-0.6314486861228943,-8.986470222473145,0.0,0.0,0.0
29.998907,-0.004023720510303974,-0.33225560188293457,-9.41231918334961,0.0,0.0,0.0
30.098907,0.1802424043416977,-0.3160613775253296,-9.731085777282715,0.0,0.0,0.0
30.198909,0.3690136969089508,-0.5834617614746094,-9.169612884521484,0.0,0.0,0.0
30.298907,-0.018634792417287827,-0.655403733253479,-9.247697830200195,0.0,0.0,0.0
30.399907,-0.015059305354952812,-0.6320672631263733,-9.977886199951172,0.0,0.0,0.0
30.499907,0.4169619381427765,-0.6305928230285645,-9.127681732177734,0.0,0.0,0.0
30.599909,0.3480348289012909,-0.5316072702407837,-9.060090065002441,0.0,0.0,0.0
30.699907,0.34496137499809265,-0.8550398945808411,-9.325262069702148,0.0,0.0,0.0
30.799919,0.38770484924316406,-0.8166388869285583,-9.329907417297363,0.0,0.0,0.0
30.899908,0.14170587062835693,-0.9315418004989624,-9.7003173828125,0.0,0.0,0.0
30.999907,0.2919470965862274,-0.9469892978668213,-9.0188627243042,0.0,0.0,0.0
31.099907,0.1202753558754921,-0.34286177158355713,-9.929011344909668,0.0,0.0,0.0
31.199909,0.19695089757442474,-0.7063648104667664,-9.124149322509766,0.0,0.0,0.0
31.299912,0.018291980028152466,-0.794028639793396,-9.15100383758545,0.0,0.0,0.0
31.399908,0.3444785475730896,-0.7504805326461792,-9.598674774169922,0.0,0.0,0.0
31.49991,0.39152997732162476,-0.2739098072052002,-10.081037521362305,0.0,0.0,0.0
31.599907,0.035545602440834045,-0.7366377711296082,-9.582280158996582,0.0,0.0,0.0
31.699907,0.325396865606308,-0.639633059501648,-8.98618221282959,0.0,0.0,0.0
31.799914,0.12940365076065063,-0.4251309335231781,-9.526819229125977,0.0,0.0,0.0
31.899908,0.4274694621562958,-0.5512984991073608,-9.382745742797852,0.0,0.0,0.0
31.999909,0.06943570822477341,-0.33014243841171265,-8.915936470031738,0.0,0.0,0.0
32.099918,0.2823941707611084,-0.494114488363266,-9.323600769042969,0.0,0.0,0.0
32.199918,0.3931550681591034,-0.49441757798194885,-9.848689079284668,0.0,0.0,0.0
32.299932,0.4288235902786255,-0.3978777229785919,-9.597482681274414,0.0,0.0,0.0
32.399932,0.4648056626319885,-0.6084359884262085,-8.405231475830078,0.0,0.0,0.0
32.499955,0.5262035727500916,-0.4335448145866394,-9.117963790893555,0.0,0.0,0.0
32.599949,0.5570657253265381,-0.390749454498291,-9.885876655578613,0.0,0.0,0.0
32.699935,0.6062646508216858,-0.5794833302497864,-9.307497024536133,0.0,0.0,0.0
32.799907,0.41186392307281494,-0.43392348289489746,-9.092302322387695,0.0,0.0,0.0
32.899906,-0.056005362421274185,-0.7284927368164062,-9.616684913635254,0.0,0.0,0.0
32.999911,0.3835693895816803,-0.31927749514579773,-9.474054336547852,0.0,0.0,0.0
33.099907,0.5015575885772705,-0.28377047181129456,-9.570695877075195,0.0,0.0,0.0
33.199907,0.63661128282547,-0.47719258069992065,-9.147607803344727,0.0,0.0,0.0
33.299906,0.22805194556713104,-0.38866502046585083,-9.739341735839844,0.0,0.0,0.0
33.399906,0.06262030452489853,-0.660681426525116,-9.434645652770996,0.0,0.0,0.0
33.499907,0.6712864637374878,-0.49021413922309875,-8.978891372680664,0.0,0.0,0.0
33.599907,0.47527411580085754,-0.4901837110519409,-9.406005859375,0.0,0.0,0.0
33.699907,0.1521839201450348,-0.7371819019317627,-9.27200698852539,0.0,0.0,0.0
33.799908,0.5282151699066162,-0.44718819856643677,-9.445691108703613,0.0,0.0,0.0
33.899907,0.36074885725975037,-0.5278628468513489,-9.048416137695312,0.0,0.0,0.0
33.999907,0.4544505476951599,-0.5879690647125244,-9.587225914001465,0.0,0.0,0.0
34.099906,0.05053148791193962,-0.8801863789558411,-9.00644302368164,0.0,0.0,0.0
34.199907,0.24461986124515533,-0.6868433356285095,-9.711548805236816,0.0,0.0,0.0
34.299906,0.5213168859481812,-0.7511048316955566,-9.377181053161621,0.0,0.0,0.0
34.399907,0.7368834614753723,-0.6292785406112671,-9.269230842590332,0.0,0.0,0.0
34.499912,0.3442877531051636,-0.6764698028564453,-9.456900596618652,0.0,0.0,0.0
34.600909,0.3384571969509125,-0.8794028759002686,-9.760905265808105,0.0,0.0,0.0
34.700907,0.2733311951160431,-0.5794598460197449,-9.053972244262695,0.0,0.0,0.0
34.800909,0.3795732259750366,-0.5884811282157898,-9.409998893737793,0.0,0.0,0.0
34.899907,0.4136604070663452,-0.7973408102989197,-10.038504600524902,0.0,0.0,0.0
34.999911,0.5035502910614014,-0.5791511535644531,-9.243573188781738,0.0,0.0,0.0
35.099907,0.4352579414844513,-0.4036715030670166,-9.780237197875977,0.0,0.0,0.0
35.199907,0.16390904784202576,-0.740203320980072,-9.119180679321289,0.0,0.0,0.0
35.299926,0.2304099202156067,-0.6112353205680847,-9.009818077087402,0.0,0.0,0.0
35.399907,0.3687298595905304,-0.6816183924674988,-9.676553726196289,0.0,0.0,0.0
35.500909,0.4345903992652893,-0.3542695641517639,-9.348396301269531,0.0,0.0,0.0
35.600907,0.24203373491764069,-0.29280951619148254,-9.78818130493164,0.0,0.0,0.0
35.699906,0.24517160654067993,-0.5545579195022583,-9.570462226867676,0.0,0.0,0.0
35.800907,0.14932920038700104,-0.6038811802864075,-9.392024993896484,0.0,0.0,0.0
35.900907,0.07581214606761932,-0.3521255552768707,-9.706893920898438,0.0,0.0,0.0
36.00091,0.023399747908115387,-0.4403553009033203,-10.349838256835938,0.0,0.0,0.0
36.100907,0.4538085460662842,-0.5262932777404785,-9.700553894042969,0.0,0.0,0.0
36.200908,0.05809801444411278,-0.8273388743400574,-8.234654426574707,0.0,0.0,0.0
36.300908,-0.06673470139503479,-0.6139481663703918,-9.668708801269531,0.0,0.0,0.0
36.400908,-0.10172925889492035,-0.300190806388855,-10.108290672302246,0.0,0.0,0.0
36.500913,-0.06398370862007141,-0.47735166549682617,-9.524873733520508,0.0,0.0,0.0
36.600918,-0.4217769503593445,-0.9579451084136963,-8.288515090942383,0.0,0.0,0.0
36.700922,0.02456537075340748,-0.8540766835212708,-8.033958435058594,0.0,0.0,0.0
36.800922,0.20328429341316223,-0.7743066549301147,-9.173922538757324,0.0,0.0,0.0
36.900942,-0.48105040192604065,-0.7114044427871704,-9.141279220581055,0.0,0.0,0.0
37.000953,-0.000960521399974823,-0.7397638559341431,-9.00584602355957,0.0,0.0,0.0
37.100949,-0.44472041726112366,-0.4651229977607727,-9.391790390014648,0.0,0.0,0.0
37.200947,0.13394898176193237,-0.36493274569511414,-9.91189956665039,0.010532218962907791,-0.09939900785684586,0.08674564212560654
37.30091,0.1369340866804123,-0.5307459235191345,-9.414551734924316,0.030038785189390182,-0.04875106364488602,0.08467160165309906
37.40091,-0.10278351604938507,-0.3027518391609192,-9.526667594909668,0.04806520789861679,-0.06925183534622192,0.0819491520524025
37.500909,0.04749438911676407,-0.49618327617645264,-9.632282257080078,0.013209214434027672,-0.06228368356823921,0.0934656411409378
37.600906,0.02355334721505642,-0.6417267918586731,-9.220674514770508,-0.014026699587702751,0.013631438836455345,0.08099505305290222
37.700907,-0.11031138151884079,-0.45334896445274353,-8.756867408752441,0.03941192105412483,-0.05428001657128334,0.049397062510252
37.800906,-0.033809710294008255,-0.5951446294784546,-10.149041175842285,-0.17181698977947235,0.08823910355567932,0.034322403371334076
37.900907,-0.08282693475484848,-0.8019419312477112,-8.549409866333008,-0.00447169691324234,-0.1342339813709259,0.03047586977481842
38.000906,0.050246067345142365,-0.713528037071228,-8.877776145935059,-0.04494687542319298,0.07113031297922134,0.028184033930301666
38.100906,0.2007625848054886,-0.9585357904434204,-8.97887897491455,-0.04597512632608414,0.004392541944980621,0.04670581594109535
38.200907,-0.05546915903687477,-0.8548272848129272,-9.206472396850586,0.029357684776186943,-0.05126934498548508,0.057360514998435974
38.300906,-0.019676512107253075,-0.8775143623352051,-8.827272415161133,-0.0031840139999985695,-0.025375179946422577,0.08807422965765
38.400906,0.3545141816139221,-0.45157191157341003,-9.481563568115234,-0.08852004259824753,0.027147475630044937,0.11493082344532013
38.501907,0.05743030458688736,-0.7373703718185425,-9.503402709960938,0.0,0.0,0.0
38.600907,-0.20902422070503235,-0.8830546736717224,-9.57670783996582,0.04767799377441406,-0.10188695788383484,0.097511425614357
38.700907,-0.025302929803729057,-1.0018295049667358,-9.215455055236816,-0.09310058504343033,-0.06436417996883392,0.0923280119895935
38.800907,0.2057635486125946,-0.8415453433990479,-9.264010429382324,-0.01682589389383793,-0.11291828751564026,0.04817994683980942
38.901907,0.14473281800746918,-0.8129863739013672,-9.322093963623047,0.0,0.0,0.0
39.000907,0.0003216676414012909,-0.7524727582931519,-9.101747512817383,0.04012403264641762,-0.0285930372774601,0.03835853189229965
39.100907,0.10600390285253525,-0.8195908069610596,-9.056056022644043,-0.05463504418730736,-0.02289421856403351,0.010709119029343128
39.201907,0.18677742779254913,-0.984908938407898,-9.375038146972656,0.0,0.0,0.0
39.301907,-0.0011878940276801586,-0.6588349342346191,-9.28903579711914,0.0,0.0,0.0
39.400908,0.16330751776695251,-0.8029119372367859,-8.835067749023438,-0.04096749797463417,-0.07316210865974426,0.005251270718872547
39.500906,0.29835715889930725,-0.7291316390037537,-9.01857852935791,0.0003873076057061553,0.07097406685352325,-0.008280986919999123
39.601918,0.031506553292274475,-0.6162945032119751,-9.857523918151855,0.0,0.0,0.0
39.700906,0.12226738035678864,-0.6106207370758057,-9.456676483154297,-0.04287596046924591,-0.0713007003068924,-0.00837611872702837
39.801909,-0.09232781827449799,-0.6287265419960022,-9.699110984802246,0.0,0.0,0.0
39.901907,0.3362202048301697,-0.7619527578353882,-8.324586868286133,0.0,0.0,0.0
40.001909,0.24657472968101501,-0.7019948959350586,-9.636663436889648,0.0,0.0,0.0
40.101907,0.03153902292251587,-0.4969783425331116,-9.958118438720703,0.0,0.0,0.0
40.201909,-0.1038268506526947,-0.6948060393333435,-9.236072540283203,0.0,0.0,0.0
40.301907,0.19751004874706268,-0.812595009803772,-8.35171127319336,0.0,0.0,0.0
40.401907,0.2278669774532318,-0.687267541885376,-9.229046821594238,0.0,0.0,0.0
40.501913,-0.1656895875930786,-0.5304056406021118,-9.596152305603027,0.0,0.0,0.0
40.601907,0.18200048804283142,-0.6533725261688232,-8.916571617126465,0.0,0.0,0.0
40.701909,0.2362973690032959,-0.6824555397033691,-9.424088478088379,0.0,0.0,0.0
40.801907,-0.09320365637540817,-0.5044600367546082,-10.299522399902344,0.0,0.0,0.0
40.901911,-0.1440487802028656,-0.7173147201538086,-9.1900634765625,0.0,0.0,0.0
41.001907,-0.05939612537622452,-0.9213183522224426,-9.358455657958984,0.0,0.0,0.0
41.101907,0.254472553730011,-0.7517600655555725,-10.223858833312988,0.0,0.0,0.0
41.201907,0.17476502060890198,-0.32701897621154785,-11.188651084899902,0.0,0.0,0.0
41.301911,0.2963617146015167,-0.4084998369216919,-10.379897117614746,0.0,0.0,0.0
41.401924,0.26597192883491516,-0.7569632530212402,-8.385695457458496,0.0,0.0,0.0
41.501912,-0.17439845204353333,-0.9035338759422302,-9.033720970153809,0.0,0.0,0.0
41.601919,0.14531731605529785,-0.6951162815093994,-10.554186820983887,0.0,0.0,0.0
41.701932,0.13772054016590118,-0.7129796743392944,-9.861557006835938,0.0,0.0,0.0
41.80194,0.1719641387462616,-0.6218723654747009,-9.481392860412598,0.0,0.0,0.0
41.901947,0.2525091767311096,-0.40298449993133545,-9.806541442871094,0.0,0.0,0.0
42.001918,-0.29501426219940186,-0.8647293448448181,-8.048545837402344,0.0,0.0,0.0
42.101907,0.16603225469589233,-0.38676273822784424,-9.791335105895996,-0.08961737155914307,0.12116362899541855,0.009833941236138344
42.201907,-0.6544493436813354,-1.5604636669158936,-6.773644924163818,0.0,0.0,0.0
42.302907,-0.41430357098579407,-1.6868093013763428,-6.543337821960449,0.0,0.0,0.0
42.401907,-0.3052925169467926,-0.975003719329834,-9.440793991088867,-0.020975368097424507,-0.07079026103019714,0.01798238605260849
42.501907,-0.12393711507320404,-0.3827688992023468,-9.72872257232666,0.0,0.0,0.0
42.601907,-0.24460648000240326,-0.38530465960502625,-9.18261432647705,0.0,0.0,0.0
42.70191,0.3389485478401184,-0.226473867893219,-10.897920608520508,0.0,0.0,0.0
42.801907,0.3089788854122162,-0.18577231466770172,-10.999052047729492,0.08874672651290894,-0.12213446944952011,0.010107009671628475
42.901907,0.37896978855133057,-0.5868526697158813,-10.381118774414062,0.0,0.0,0.0
43.002907,0.1178571954369545,-0.4891992211341858,-10.61149787902832,0.0,0.0,0.0
43.101907,-0.008170600980520248,-0.5541560649871826,-9.719730377197266,0.0,0.0,0.0
43.201907,-0.2930370569229126,-1.0315947532653809,-7.556828498840332,0.0,0.0,0.0
43.301908,-0.8383655548095703,-1.9187501668930054,-6.1370673179626465,0.0,0.0,0.0
43.401908,-0.3245254456996918,-1.6254297494888306,-7.967947483062744,0.0,0.0,0.0
43.50191,0.07080709934234619,-0.6931595206260681,-10.804662704467773,-0.18437506258487701,0.15739405155181885,0.0639120489358902
43.601907,-0.3749236464500427,-0.9123153686523438,-8.303244590759277,0.0,0.0,0.0
43.701907,-0.3113242983818054,-0.9273879528045654,-8.676264762878418,0.0,0.0,0.0
43.801907,0.3990328907966614,-0.0226516705006361,-10.77830696105957,0.0,0.0,0.0
43.901909,0.18385165929794312,-0.12013354152441025,-10.367572784423828,-0.02433900535106659,-0.088081955909729,0.10936996340751648
44.001907,0.4268780052661896,-0.055886317044496536,-10.82181167602539,0.0,0.0,0.0
44.101907,0.1505977064371109,-0.3479468822479248,-9.71534538269043,0.0,0.0,0.0
44.201907,-0.7127646207809448,-1.211737036705017,-6.075789928436279,0.0,0.0,0.0
44.301907,0.17566440999507904,-0.5496920347213745,-10.179742813110352,-0.2956503927707672,0.4789523482322693,0.006345763336867094
44.402911,-0.48109936714172363,-0.4051855504512787,-9.979830741882324,0.0,0.0,0.0
44.501908,-0.7054267525672913,-1.0480402708053589,-7.371411323547363,0.0738256499171257,-0.11109805107116699,0.03775065019726753
44.602909,-0.4202311038970947,-0.7425193190574646,-7.439890384674072,0.0,0.0,0.0
44.701907,0.15582148730754852,-0.9676858186721802,-8.928013801574707,0.013022297993302345,0.012668219394981861,0.02145582064986229
44.801909,0.4134009778499603,-0.5210670828819275,-10.015089988708496,0.0466267466545105,-0.17117439210414886,0.042044419795274734
44.901907,0.12184564024209976,-0.927082896232605,-8.64212703704834,0.10317564010620117,-0.29356077313423157,0.02117077447474003
45.002909,-0.6089627742767334,-0.8602007031440735,-8.33569622039795,0.0,0.0,0.0
45.102912,-0.17106595635414124,-0.4661388099193573,-9.309554100036621,0.0,0.0,0.0
45.20191,-0.08433673530817032,-0.5317827463150024,-9.178191184997559,0.06403189897537231,-0.12271341681480408,0.035712651908397675
45.302908,-0.16912075877189636,-0.5741394758224487,-8.781827926635742,0.0,0.0,0.0
45.40291,0.05421806871891022,-0.7677676677703857,-9.197043418884277,0.0,0.0,0.0
45.502907,-0.26657307147979736,-0.694506824016571,-8.913061141967773,0.0,0.0,0.0
45.602907,-0.17349524796009064,-0.8008304834365845,-8.768697738647461,0.0,0.0,0.0
45.702911,-0.22019386291503906,-0.7659306526184082,-8.951934814453125,0.0,0.0,0.0
45.80291,-0.1822633147239685,-0.9199571013450623,-8.91738510131836,0.0,0.0,0.0
45.902907,-0.4545729458332062,-0.7864612340927124,-8.952791213989258,0.0,0.0,0.0
46.002912,-0.4963087737560272,-1.015426516532898,-8.941350936889648,0.0,0.0,0.0
46.102908,-0.2814076840877533,-0.7672443389892578,-9.29641342163086,0.0,0.0,0.0
46.203912,-0.2959851622581482,-0.6269229650497437,-9.57528305053711,0.0,0.0,0.0
46.302922,-0.45156028866767883,-0.7886072397232056,-9.529523849487305,0.0,0.0,0.0
46.402926,-0.32368189096450806,-0.804946780204773,-9.027883529663086,0.0,0.0,0.0
46.50293,-0.2852877974510193,-0.7820286750793457,-8.89239501953125,0.0,0.0,0.0
46.602936,-0.3142929673194885,-0.9009972214698792,-9.111089706420898,0.0,0.0,0.0
46.702942,-0.49233734607696533,-0.9201551079750061,-8.972099304199219,0.0,0.0,0.0
46.802947,-0.13025961816310883,-0.7389498949050903,-9.267850875854492,0.0,0.0,0.0
46.902952,0.036702223122119904,-0.6408515572547913,-9.375733375549316,0.0,0.0,0.0
47.002909,0.094515860080719,-0.7955385446548462,-9.623796463012695,0.0,0.0,0.0
47.10291,-0.047367163002491,-0.6134054660797119,-10.084344863891602,0.0,0.0,0.0
47.202921,-0.4376257359981537,-0.7715426683425903,-9.112626075744629,0.0,0.0,0.0
47.302926,-0.25492727756500244,-1.1197056770324707,-9.294057846069336,0.0,0.0,0.0
47.402911,-0.15321484208106995,-1.0450924634933472,-9.405963897705078,0.0,0.0,0.0
47.502907,-0.5590910315513611,-1.0853286981582642,-9.15017318725586,0.0,0.0,0.0
47.602907,-0.30282536149024963,-0.8978882431983948,-9.861701011657715,0.0,0.0,0.0
47.702907,-0.15833315253257751,-0.5479705333709717,-9.867772102355957,0.0,0.0,0.0
47.802907,-0.0663980171084404,-0.7188397645950317,-9.818696975708008,0.0,0.0,0.0
47.902907,-0.12080872803926468,-0.51322340965271,-9.998638153076172,0.0,0.0,0.0
48.002907,-0.3764963150024414,-0.4276732802391052,-9.680618286132812,0.0,0.0,0.0
48.102907,-0.2824435532093048,-0.8559272885322571,-8.731220245361328,0.0,0.0,0.0
48.202907,-0.07540549337863922,-1.2266845703125,-9.222892761230469,0.0,0.0,0.0
48.302906,-0.1378224492073059,-1.2046093940734863,-9.24216365814209,0.0,0.0,0.0
48.402907,-0.5975281000137329,-0.8685232400894165,-9.076848983764648,0.0,0.0,0.0
48.502907,-0.27386754751205444,-0.7045900225639343,-9.204237937927246,0.0,0.0,0.0
48.603908,-0.04077056050300598,-0.5353729128837585,-9.822916030883789,0.0,0.0,0.0
48.702907,0.1621379554271698,-0.561793327331543,-9.416131973266602,0.0,0.0,0.0
48.802907,0.0946226716041565,-0.8177292346954346,-9.056367874145508,0.0,0.0,0.0
48.903915,-0.16721653938293457,-1.1588432788848877,-8.741129875183105,0.0,0.0,0.0
49.002909,0.030344657599925995,-0.949012279510498,-9.110112190246582,0.0,0.0,0.0
49.102906,-0.2099657952785492,-0.8052600026130676,-9.548986434936523,0.0,0.0,0.0
49.202926,-0.40306323766708374,-0.6698493957519531,-8.390429496765137,0.0,0.0,0.0
49.302907,-0.06392402201890945,-0.6440936923027039,-9.381624221801758,0.0,0.0,0.0
49.402914,0.06799033284187317,-0.588605523109436,-9.789186477661133,0.0,0.0,0.0
49.502907,-0.17182493209838867,-0.7238537669181824,-9.530433654785156,0.0,0.0,0.0
49.602907,0.14599306881427765,-0.8308075666427612,-8.794179916381836,0.0,0.0,0.0
49.702909,0.06349758803844452,-1.1461846828460693,-8.658370018005371,-0.006408353336155415,0.14841324090957642,0.036134738475084305
49.802907,0.3079158663749695,-1.0969535112380981,-9.193872451782227,0.0,0.0,0.0
49.902907,0.31792324781417847,-0.893532395362854,-8.849811553955078,0.02807752415537834,0.009094784036278725,0.021976489573717117
50.002918,0.2804581820964813,-0.740112841129303,-8.661154747009277,-0.0027762174140661955,-0.037446655333042145,0.027998389676213264
50.10291,0.4429735839366913,-0.44497790932655334,-9.72530746459961,0.0,0.0,0.0
50.20291,0.23466041684150696,-0.513613760471344,-9.441762924194336,0.1047055572271347,-0.16979223489761353,0.04139941185712814
50.302907,0.3327024281024933,-0.3749867081642151,-9.652169227600098,-0.04694324731826782,0.028650619089603424,0.02585187368094921
50.402907,0.4812951683998108,-0.4853726327419281,-8.88300609588623,0.008113405667245388,-0.11445583403110504,0.008657768368721008
50.503907,0.0812363475561142,-0.625275731086731,-9.623625755310059,0.0,0.0,0.0
50.602908,0.009546516463160515,-0.6966924071311951,-8.985547065734863,-0.03591272979974747,-0.10914510488510132,0.0168001689016819
50.70291,-0.03148245811462402,-0.7773375511169434,-8.63360595703125,-0.030148422345519066,0.08846213668584824,0.02112579345703125
50.802907,-0.2787829041481018,-0.7872342467308044,-8.932068824768066,-0.06208007410168648,0.11115454137325287,0.01314095314592123
50.902907,-0.06306448578834534,-0.737446665763855,-8.778164863586426,-0.09290212392807007,-0.04029117897152901,0.03802907466888428
51.003922,0.07350297272205353,-0.8035029768943787,-9.006486892700195,0.027479661628603935,0.02599305473268032,0.03509952500462532
51.103907,0.45865148305892944,-0.32789739966392517,-9.66413402557373,0.0,0.0,0.0
51.203907,0.1220817118883133,-0.5904371738433838,-8.832769393920898,0.0,0.0,0.0
51.30391,0.26173466444015503,-0.4838734269142151,-9.61301326751709,0.0,0.0,0.0
51.403907,0.32157737016677856,-0.47513043880462646,-9.69072437286377,0.0,0.0,0.0
51.503907,-0.13107700645923615,-0.4359084367752075,-8.92915153503418,0.0,0.0,0.0
51.603906,-0.26967108249664307,-0.5230650901794434,-9.87755298614502,0.0,0.0,0.0
51.703918,0.1712711751461029,-0.6720629334449768,-9.490907669067383,0.0,0.0,0.0
51.803907,0.13499224185943604,-0.682093620300293,-8.664249420166016,0.0,0.0,0.0
51.903907,0.1507672220468521,-0.5880653858184814,-9.145729064941406,0.0,0.0,0.0
52.003907,0.3729920983314514,-0.42211052775382996,-9.819896697998047,0.0,0.0,0.0
52.103907,0.16370414197444916,-0.5178167819976807,-9.04839038848877,0.0,0.0,0.0
52.203929,0.287617951631546,-0.7320106029510498,-8.454955101013184,0.013756710104644299,-0.09786634147167206,0.05573027953505516
52.303934,0.3868429660797119,-0.3459429144859314,-9.351519584655762,-0.14599783718585968,0.06794091314077377,0.05114199221134186
52.403932,-0.1901380717754364,-0.5930079817771912,-9.61723804473877,-0.03606821596622467,-0.0650675818324089,0.018485691398382187
52.503945,0.4680458903312683,-0.5464019179344177,-9.901243209838867,-0.05628352612257004,0.0185784250497818,0.00971965305507183
52.603951,0.10238665342330933,-0.5306260585784912,-9.056618690490723,0.0629303976893425,-0.1053677648305893,-0.000526899064425379
52.703955,0.35481446981430054,-0.6044623851776123,-8.968116760253906,-0.11264128983020782,0.03105349838733673,0.004788932390511036
52.803906,0.4288526475429535,-0.45180046558380127,-9.187317848205566,0.00018252187874168158,-0.005299360956996679,0.01652013137936592
52.903958,0.2677883505821228,-0.3052294850349426,-9.427225112915039,0.03547925874590874,-0.029574785381555557,0.013667624443769455
53.00391,-0.059848882257938385,-0.4623637795448303,-9.469963073730469,0.0562920942902565,-0.025255782529711723,0.003168250434100628
53.103915,0.30557018518447876,-0.6994982957839966,-9.230585098266602,0.0411369614303112,-0.025817643851041794,-0.0017468351870775223
53.203907,0.20408949255943298,-0.41294586658477783,-8.97098159790039,-0.08723467588424683,0.029598593711853027,0.011025981977581978
53.303907,0.06750904768705368,-0.6632765531539917,-8.880385398864746,-0.09204152971506119,-0.03374436870217323,0.004975616931915283
53.403908,0.4097835123538971,-0.4933086633682251,-8.745071411132812,0.006741511169821024,-0.07399066537618637,0.004099308513104916
53.503927,0.44202113151550293,-0.601852536201477,-8.982441902160645,-0.026355989277362823,0.10892818123102188,0.007427469361573458
53.604907,0.2751110792160034,-0.3468897342681885,-9.722227096557617,0.0,0.0,0.0
53.704907,0.14032478630542755,-0.7563058137893677,-8.961206436157227,0.0,0.0,0.0
53.805907,0.3498765528202057,-0.7729226350784302,-9.34276008605957,0.0,0.0,0.0
53.905907,0.4366849660873413,-0.7726611495018005,-9.2972993850708,0.0,0.0,0.0
54.004907,0.06899364292621613,-0.7127748727798462,-9.384395599365234,0.0,0.0,0.0
54.104908,-0.006078403443098068,-0.8277239203453064,-9.241734504699707,-0.0875675305724144,-0.09215210378170013,-0.02513086050748825
54.205907,0.3329503834247589,-0.6650299429893494,-9.660512924194336,0.0,0.0,0.0
54.305911,0.62652987241745,-0.6190915107727051,-9.532096862792969,0.0,0.0,0.0
54.405917,0.40181511640548706,-0.6438989639282227,-8.795371055603027,0.0,0.0,0.0
54.505914,-0.2842014729976654,-0.5947288274765015,-9.326725006103516,0.0,0.0,0.0
54.605907,0.19428426027297974,-0.49277999997138977,-8.86362361907959,0.0,0.0,0.0
54.705906,0.26703232526779175,-0.41583195328712463,-9.014630317687988,0.0,0.0,0.0
54.805907,0.16641569137573242,-0.3394905924797058,-9.536624908447266,0.11917807161808014,0.04435623437166214,0.019001616165041924
54.905907,0.1735919862985611,-0.322597473859787,-9.326189041137695,0.0,0.0,0.0
55.005907,0.534718930721283,-0.45518237352371216,-9.111516952514648,0.0,0.0,0.0
55.105907,0.1603752076625824,-0.3799089789390564,-10.109614372253418,0.0,0.0,0.0
55.205908,0.03518274798989296,-0.8435455560684204,-9.016761779785156,0.0,0.0,0.0
55.305907,0.023845888674259186,-1.0289009809494019,-8.109699249267578,-0.06543361395597458,0.08272258937358856,0.010780548676848412
55.405907,0.04185832291841507,-0.6703910231590271,-9.838231086730957,-0.1518658548593521,0.00377765204757452,0.01669953763484955
55.505907,0.22676753997802734,-0.5778652429580688,-9.302796363830566,0.0,0.0,0.0
55.605907,0.36642301082611084,-0.6962685585021973,-9.741609573364258,0.0,0.0,0.0
55.70591,-0.05691852420568466,-0.521860659122467,-9.811057090759277,0.009832935407757759,-0.02998817339539528,0.04328695684671402
55.805907,-0.06739488989114761,-0.6066858172416687,-9.358908653259277,0.0,0.0,0.0
55.905912,0.017170021310448647,-0.9038569927215576,-8.868006706237793,0.05750216543674469,0.005985759198665619,0.033828169107437134
56.005919,0.1024896427989006,-0.7966694831848145,-8.77954387664795,-0.021393366158008575,0.0703870877623558,0.02814345248043537
56.105927,0.09266363084316254,-0.8087508082389832,-8.693412780761719,0.0,0.0,0.0
56.20593,0.24051648378372192,-0.6034708023071289,-9.555011749267578,-0.06317984312772751,0.04167063161730766,0.047875724732875824
56.305938,0.21669307351112366,-0.8098480105400085,-9.076385498046875,0.0,0.0,0.0
56.405944,0.15248672664165497,-0.7034217715263367,-9.086784362792969,0.0,0.0,0.0
56.505954,0.28228938579559326,-0.5609875917434692,-9.348222732543945,-0.02512052282691002,0.0074064480140805244,0.03414100036025047
56.605906,0.2867204546928406,-0.7888849973678589,-9.355324745178223,-0.0025351697113364935,-0.0077009680680930614,0.012449989095330238
56.705911,-0.02601652778685093,-1.0109481811523438,-9.224241256713867,0.020576849579811096,0.010030915960669518,-0.01662994548678398
56.805907,0.47447770833969116,-0.666633665561676,-9.115723609924316,-0.05582277104258537,0.016815640032291412,-0.01486111618578434
56.90591,0.21167516708374023,-0.8654457330703735,-10.404964447021484,0.01932310312986374,-0.04183517396450043,-0.035785313695669174
57.005907,0.0757298618555069,-0.7495801448822021,-9.127771377563477,0.06085846573114395,0.003514939686283469,-0.04032650589942932
57.105907,0.3930380940437317,-0.7448866367340088,-9.32773208618164,-0.06526274234056473,-0.156026691198349,-0.056999571621418
57.205916,0.11238965392112732,-0.49723511934280396,-9.869722366333008,-0.04991312697529793,0.005388619378209114,-0.04210495203733444
57.305909,0.27353084087371826,-1.2198257446289062,-8.651368141174316,0.08085156977176666,0.009245644323527813,-0.02568986639380455
57.405909,0.6848495006561279,-1.0919487476348877,-9.245450973510742,-0.010664917528629303,0.008348556235432625,0.0036091075744479895
57.505913,0.1864718496799469,-0.9701210260391235,-9.473634719848633,-0.04515109956264496,-0.10419490933418274,0.036797210574150085
57.605919,0.187747985124588,-0.9370238780975342,-10.312808990478516,0.029120218008756638,-0.02240053005516529,0.05671791732311249
57.705916,0.3560125529766083,-0.9223047494888306,-8.89896011352539,-0.04857749864459038,-0.03226549178361893,0.08685766905546188
57.80593,0.3499525487422943,-1.0726462602615356,-9.139293670654297,-0.07126694917678833,-0.029215995222330093,0.1126331090927124
57.906908,0.34506988525390625,-1.0653111934661865,-8.722607612609863,0.0,0.0,0.0
58.005949,0.3435523808002472,-0.9332513213157654,-9.613423347473145,-0.1456013321876526,0.01955573633313179,0.09774033725261688
58.105946,0.3142833709716797,-0.9440784454345703,-9.241073608398438,0.12425588071346283,-0.007476695813238621,0.08355571329593658
58.205944,0.44336849451065063,-0.5714887380599976,-9.489892959594727,-0.061126016080379486,-0.055842041969299316,0.04187890142202377
58.305904,0.2855226695537567,-1.2769149541854858,-9.297666549682617,-0.015901891514658928,0.013394445180892944,0.019299454987049103
58.406907,0.2660478949546814,-1.0527783632278442,-9.030668258666992,0.0,0.0,0.0
58.506908,0.4182637929916382,-0.9035062789916992,-9.820638656616211,0.0,0.0,0.0
58.606907,-0.05525299906730652,-1.0527650117874146,-9.358999252319336,0.0,0.0,0.0
58.706909,0.2839623689651489,-1.0338908433914185,-9.224852561950684,0.0,0.0,0.0
58.806907,0.34520530700683594,-0.9808834195137024,-10.025124549865723,0.0,0.0,0.0
58.906907,0.266821026802063,-1.1639500856399536,-9.09669303894043,0.0,0.0,0.0
59.006909,0.3646492660045624,-0.9149677157402039,-9.458149909973145,0.0,0.0,0.0
59.106909,0.16873428225517273,-1.0755767822265625,-9.771017074584961,0.0,0.0,0.0
59.206907,0.7989104986190796,-0.6410358548164368,-9.690851211547852,0.0,0.0,0.0
59.306907,0.2723615765571594,-0.8050245046615601,-10.420463562011719,0.0,0.0,0.0
59.406907,0.3401927351951599,-0.6535030603408813,-10.155638694763184,0.0,0.0,0.0
59.506908,0.4603450894355774,-1.0962193012237549,-9.983861923217773,0.0,0.0,0.0
59.606907,0.48883992433547974,-1.2041832208633423,-8.992012023925781,0.0,0.0,0.0
59.70691,0.6918812394142151,-1.1181304454803467,-9.28645133972168,0.0,0.0,0.0
59.806907,0.49611562490463257,-1.3649176359176636,-8.532745361328125,0.0,0.0,0.0
59.906907,0.37890833616256714,-1.0906004905700684,-9.904704093933105,0.0,0.0,0.0
60.006917,0.7155336141586304,-0.6361528635025024,-9.557636260986328,0.0,0.0,0.0
60.106914,0.501240611076355,-0.6301097869873047,-9.528566360473633,0.0,0.0,0.0
60.206907,0.3798333406448364,-0.659037172794342,-8.380132675170898,0.0,0.0,0.0
60.306907,0.539284884929657,-0.25945860147476196,-10.014616012573242,0.0,0.0,0.0
60.406907,0.3835493326187134,-0.563999354839325,-9.331206321716309,0.0,0.0,0.0
60.506907,0.5183743238449097,-0.8214728832244873,-7.991084098815918,0.0,0.0,0.0
60.606907,0.7145929336547852,-0.49380263686180115,-9.381657600402832,0.0,0.0,0.0
60.70791,0.4157903790473938,-0.3517298996448517,-9.82850456237793,0.0,0.0,0.0
60.806907,0.5675220489501953,-0.4699743688106537,-9.066619873046875,0.0,0.0,0.0
60.907907,0.6841282248497009,-0.46854734420776367,-8.778496742248535,0.0,0.0,0.0
61.006907,0.41581475734710693,-0.3284832537174225,-9.003957748413086,0.0,0.0,0.0
61.10691,0.2685834765434265,-0.26550740003585815,-8.805402755737305,0.0,0.0,0.0
61.206907,0.4860285520553589,-0.1292780190706253,-9.307317733764648,0.0,0.0,0.0
61.30691,0.5258837342262268,-0.5726006031036377,-9.569021224975586,0.0,0.0,0.0
61.407907,0.285859078168869,-0.38165751099586487,-8.715465545654297,0.0,0.0,0.0
61.506909,0.1266718953847885,-0.12775126099586487,-9.17241096496582,0.0,0.0,0.0
61.606922,0.4600594639778137,-0.33225810527801514,-9.592097282409668,0.0,0.0,0.0
61.706927,0.26712074875831604,-0.45818620920181274,-9.140226364135742,0.0,0.0,0.0
61.807907,0.2406991869211197,-0.3583390712738037,-10.184476852416992,0.0,0.0,0.0
61.907907,0.1359093189239502,-0.44910913705825806,-9.618368148803711,0.0,0.0,0.0
62.007907,0.15959244966506958,-0.2935752272605896,-9.113646507263184,0.0,0.0,0.0
62.107908,0.2790217399597168,-0.25375252962112427,-10.15188980102539,0.0,0.0,0.0
62.207907,0.6396133303642273,-0.5907402038574219,-7.3863115310668945,0.0,0.0,0.0
62.307907,0.4593111276626587,-0.2665238678455353,-9.400230407714844,0.0,0.0,0.0
62.407907,0.4801836609840393,-0.5313111543655396,-10.28388500213623,0.0,0.0,0.0
62.507907,0.25282397866249084,-0.5281454920768738,-9.101570129394531,0.0,0.0,0.0
62.607907,0.08287674188613892,-0.6612151265144348,-9.078225135803223,0.0,0.0,0.0
62.70791,0.34412282705307007,-0.5204987525939941,-9.608235359191895,0.0,0.0,0.0
62.807907,0.765007495880127,-0.4599417746067047,-8.535552978515625,0.0,0.0,0.0
62.907908,0.5908311009407043,-0.5590447187423706,-10.020922660827637,0.0,0.0,0.0
63.007908,0.5214076042175293,-0.18561694025993347,-9.555919647216797,0.0,0.0,0.0
63.107909,0.27162107825279236,-0.5427725315093994,-8.97805404663086,0.0,0.0,0.0
63.207907,0.0675303265452385,-0.46740591526031494,-8.950401306152344,0.0,0.0,0.0
63.307907,0.026129059493541718,-0.47207123041152954,-9.26004409790039,0.0,0.0,0.0
63.407912,-0.07992328703403473,-0.8985341787338257,-9.325104713439941,0.0,0.0,0.0
63.507907,0.2535085082054138,-0.639051079750061,-8.475348472595215,0.0,0.0,0.0
63.607907,0.42776188254356384,-0.5577451586723328,-8.994355201721191,0.0,0.0,0.0
63.707908,0.18490032851696014,-0.22975417971611023,-9.019325256347656,0.0,0.0,0.0
63.807907,0.22512498497962952,-0.27235299348831177,-9.758749961853027,0.0,0.0,0.0
63.907907,-0.01044904999434948,-0.45603784918785095,-9.548351287841797,0.0,0.0,0.0
64.007907,-0.021960431709885597,-0.5536593198776245,-8.368257522583008,0.0,0.0,0.0
64.107909,-0.09818021953105927,-0.42785364389419556,-9.898558616638184,0.0,0.0,0.0
64.208907,0.5543543100357056,-0.7418889403343201,-9.333045959472656,0.0,0.0,0.0
64.308909,0.7046871185302734,-0.3719920814037323,-9.74846076965332,0.0,0.0,0.0
64.407907,0.5215394496917725,-0.22221186757087708,-9.340751647949219,0.0,0.0,0.0
64.508907,0.4783211946487427,-0.6865198612213135,-9.55556869506836,0.0,0.0,0.0
64.607907,0.1599188894033432,-0.5430871248245239,-9.134167671203613,0.0,0.0,0.0
64.70791,0.13877038657665253,-0.41075852513313293,-8.485816955566406,0.0,0.0,0.0
64.808907,0.20188823342323303,-0.9355744123458862,-8.38825798034668,0.0,0.0,0.0
64.908907,0.4134889543056488,-0.8530155420303345,-8.640165328979492,0.0,0.0,0.0
65.008917,0.49316731095314026,-0.7101296782493591,-8.934516906738281,0.0,0.0,0.0
65.107931,0.6145559549331665,-0.7436056137084961,-8.346171379089355,0.0,0.0,0.0
65.208908,0.6067465543746948,-0.445342481136322,-9.62022590637207,0.0,0.0,0.0
65.307907,0.1845688670873642,-0.5016265511512756,-9.978418350219727,0.0,0.0,0.0
65.407907,0.32227542996406555,-0.5015807151794434,-9.754735946655273,0.0,0.0,0.0
65.508909,0.4844277799129486,-0.8456356525421143,-9.446653366088867,0.0,0.0,0.0
65.608907,0.1508270502090454,-0.6159970760345459,-10.250154495239258,0.0,0.0,0.0
65.707933,0.3928927779197693,-0.7352876663208008,-9.26223087310791,0.0,0.0,0.0
65.808907,0.19848833978176117,-0.6381387710571289,-8.699827194213867,0.0,0.0,0.0
65.908907,0.5823914408683777,-0.6379357576370239,-8.994499206542969,0.0,0.0,0.0
66.008907,0.5534112453460693,-0.4248940646648407,-9.089996337890625,0.0,0.0,0.0
66.107907,0.6331518888473511,-0.7140868902206421,-9.02723503112793,0.0,0.0,0.0
66.207907,0.3826809525489807,-0.8807875514030457,-9.2401123046875,0.0,0.0,0.0
66.308907,0.47550493478775024,-1.095841646194458,-8.900632858276367,0.0,0.0,0.0
66.408912,0.29681140184402466,-0.7585813403129578,-9.007100105285645,0.0,0.0,0.0
66.508907,0.26027533411979675,-0.5456035137176514,-9.573737144470215,0.0,0.0,0.0
66.608909,0.36626923084259033,-0.6162433624267578,-9.205765724182129,0.0,0.0,0.0
66.708954,0.8223851919174194,-0.590819239616394,-9.112372398376465,0.0,0.0,0.0
66.808906,0.6064229607582092,-0.6323971748352051,-9.2001371383667,0.0,0.0,0.0
66.908915,0.4508664309978485,-0.6298575401306152,-9.23961067199707,0.0,0.0,0.0
67.008921,0.5018774271011353,-0.8639892339706421,-9.480106353759766,0.0,0.0,0.0
67.10892,0.593890368938446,-1.0014910697937012,-9.127702713012695,0.0,0.0,0.0
67.208907,0.4716339707374573,-0.5909743309020996,-9.496307373046875,0.0,0.0,0.0
67.309907,0.34524303674697876,-0.71588134765625,-9.0067138671875,0.0,0.0,0.0
67.408906,0.7424442172050476,-0.7044589519500732,-8.718573570251465,0.0,0.0,0.0
67.509907,0.45228111743927,-0.7490605711936951,-9.000822067260742,0.0,0.0,0.0
67.608907,0.6761643886566162,-0.3655640184879303,-9.398818969726562,0.0,0.0,0.0
67.708915,0.555293083190918,-0.3358551561832428,-9.608705520629883,0.0,0.0,0.0
67.808907,0.35205626487731934,-0.7068556547164917,-9.386857986450195,0.0,0.0,0.0
67.909924,0.3584606647491455,-0.48530423641204834,-9.457921981811523,0.0,0.0,0.0
68.009907,0.3021754324436188,-0.5321418046951294,-8.694563865661621,0.0,0.0,0.0
68.109907,0.32625746726989746,-0.5935999155044556,-9.175420761108398,0.0,0.0,0.0
68.209907,0.2920418381690979,-0.7104955911636353,-9.419363975524902,0.0,0.0,0.0
68.309907,0.29613038897514343,-0.2309739738702774,-9.953878402709961,0.0,0.0,0.0
68.409907,0.166190043091774,-0.5804171562194824,-9.637787818908691,0.0,0.0,0.0
68.509907,0.2508835792541504,-0.8130558729171753,-9.24239444732666,0.0,0.0,0.0
68.609907,0.26435667276382446,-0.3324640989303589,-9.272748947143555,0.0,0.0,0.0
68.709908,0.3569716811180115,-0.6346197128295898,-8.955022811889648,0.0,0.0,0.0
68.809907,0.5615241527557373,-0.9579302668571472,-9.023283958435059,0.0,0.0,0.0
68.90991,0.5427910685539246,-0.5686823129653931,-9.473740577697754,0.0,0.0,0.0
69.009907,0.4370999336242676,-0.8171885013580322,-9.457637786865234,0.0,0.0,0.0
69.109907,0.12887787818908691,-0.5864400863647461,-9.224767684936523,0.0,0.0,0.0
69.209909,0.4458109140396118,-0.8316183090209961,-8.634175300598145,0.0,0.0,0.0
69.309907,0.44702449440956116,-0.8220430612564087,-9.277861595153809,0.0,0.0,0.0
69.409907,0.7153791189193726,-0.716524600982666,-9.063807487487793,0.0,0.0,0.0
69.509906,0.3376017212867737,-0.5239967107772827,-10.051345825195312,0.0,0.0,0.0
69.609907,0.1596493124961853,-0.559982180595398,-9.120240211486816,0.0,0.0,0.0
69.709907,0.3195594847202301,-0.6588113307952881,-9.598647117614746,0.0,0.0,0.0
69.809907,0.7153276801109314,-0.9392987489700317,-9.057638168334961,0.0,0.0,0.0
69.909921,0.36939623951911926,-0.9342204928398132,-9.482961654663086,0.0,0.0,0.0
70.009907,0.3385606110095978,-0.6555887460708618,-9.332517623901367,0.0,0.0,0.0
70.109909,0.32255029678344727,-0.7340476512908936,-9.772344589233398,0.0,0.0,0.0
70.210907,0.8679872751235962,-1.0312464237213135,-8.963966369628906,0.0,0.0,0.0
70.310939,0.5886566042900085,-1.082100510597229,-9.397697448730469,0.0,0.0,0.0
70.410934,0.2738528549671173,-0.6532644033432007,-8.996932983398438,0.0,0.0,0.0
70.51091,0.26739266514778137,-0.7215885519981384,-9.289259910583496,0.0,0.0,0.0
70.610907,0.23060953617095947,-0.9059727191925049,-9.42354965209961,0.0,0.0,0.0
70.710907,0.44692492485046387,-1.1828089952468872,-9.141185760498047,0.0,0.0,0.0
70.810932,0.31153595447540283,-0.7989146709442139,-9.626349449157715,0.0,0.0,0.0
70.911908,0.3740244209766388,-0.4286280870437622,-9.255965232849121,0.0,0.0,0.0
71.010907,0.7430862188339233,-1.0640997886657715,-8.659927368164062,0.0,0.0,0.0
71.110907,0.7484564185142517,-0.6725122928619385,-9.295263290405273,0.0,0.0,0.0
71.210906,0.7220813035964966,-0.7065768241882324,-9.214103698730469,0.0,0.0,0.0
71.311907,0.24687227606773376,-1.0352809429168701,-9.424360275268555,0.0,0.0,0.0
71.410907,0.37724900245666504,-0.918893575668335,-8.88723373413086,0.0,0.0,0.0
71.510906,0.6923919916152954,-1.1262423992156982,-9.17249870300293,0.0,0.0,0.0
71.611907,0.552970826625824,-0.6323379278182983,-9.685659408569336,0.0,0.0,0.0
71.711907,0.4355742633342743,-0.6226533651351929,-9.229377746582031,0.0,0.0,0.0
71.811908,0.3985692858695984,-0.35905206203460693,-9.15592098236084,0.0,0.0,0.0
71.911907,0.773604691028595,-0.6771989464759827,-9.091081619262695,0.0,0.0,0.0
72.011907,0.4556437134742737,-0.7720000743865967,-8.80099868774414,0.0,0.0,0.0
72.111907,0.05134549364447594,-0.6214815974235535,-9.805159568786621,0.0,0.0,0.0
72.211907,0.5902974009513855,-0.6684896945953369,-9.941963195800781,0.0,0.0,0.0
72.311908,0.32417336106300354,-0.6139386892318726,-9.213977813720703,0.0,0.0,0.0
72.411907,0.4982997179031372,-0.6493711471557617,-9.122632026672363,0.0,0.0,0.0
72.511906,0.24825306236743927,-0.9124665856361389,-9.236867904663086,0.0,0.0,0.0
72.611906,0.18207629024982452,-0.6435319185256958,-9.268027305603027,0.0,0.0,0.0
72.711906,0.5501480102539062,-0.8722359538078308,-9.242856979370117,0.0,0.0,0.0
72.811918,0.42838388681411743,-0.786410391330719,-9.528843879699707,0.0,0.0,0.0
72.911909,0.25496137142181396,-1.1006609201431274,-9.42662525177002,0.0,0.0,0.0
73.011907,0.2664979100227356,-0.783656656742096,-9.019752502441406,0.0,0.0,0.0
73.111907,0.7231124639511108,-0.9469563364982605,-9.602615356445312,0.0,0.0,0.0
73.211907,0.9855532050132751,-1.090538740158081,-8.497106552124023,0.0,0.0,0.0
73.311906,0.2660030722618103,-0.8374888896942139,-9.412942886352539,0.0,0.0,0.0
73.411907,0.31498682498931885,-0.5482785701751709,-9.852797508239746,0.0,0.0,0.0
73.511907,0.33341413736343384,-0.49745577573776245,-10.109553337097168,0.0,0.0,0.0
73.612907,0.6155966520309448,-0.9066006541252136,-9.159904479980469,0.0,0.0,0.0
73.71191,0.15957437455654144,-0.7076618671417236,-9.636253356933594,0.0,0.0,0.0
73.811906,0.38523316383361816,-0.49267077445983887,-9.05496883392334,0.0,0.0,0.0
73.911906,0.5156862735748291,-0.5547645092010498,-8.59652328491211,0.0,0.0,0.0
74.011908,0.5998538732528687,-0.9067580699920654,-8.985761642456055,0.0,0.0,0.0
74.111908,0.49872323870658875,-0.8065899610519409,-9.426000595092773,0.0,0.0,0.0
74.211907,0.5642909407615662,-0.8420195579528809,-9.168046951293945,0.0,0.0,0.0
74.311907,0.19828006625175476,-0.6016528606414795,-9.743826866149902,0.0,0.0,0.0
74.411907,0.1941155195236206,-0.7082844376564026,-8.855022430419922,0.0,0.0,0.0
74.511907,0.7881818413734436,-0.5937206149101257,-9.144989013671875,0.0,0.0,0.0
74.611906,0.7619636058807373,-0.7397570610046387,-9.342162132263184,0.0,0.0,0.0
74.711907,0.5260227918624878,-0.61678546667099,-9.388532638549805,0.0,0.0,0.0
74.812909,0.34020698070526123,-0.7516993880271912,-9.514537811279297,0.0,0.0,0.0
74.912909,0.23728682100772858,-0.7780956029891968,-9.192956924438477,0.0,0.0,0.0
75.012931,0.6535394191741943,-0.947998046875,-8.733583450317383,0.0,0.0,0.0
75.11291,0.5730870962142944,-0.8102536797523499,-9.27923583984375,0.0,0.0,0.0
75.213907,0.4014904499053955,-0.35564643144607544,-8.505163192749023,0.0,0.0,0.0
75.312955,0.3555385172367096,-0.5651541948318481,-9.488110542297363,0.0,0.0,0.0
75.412952,0.3401903510093689,-0.5476149916648865,-8.898282051086426,0.0,0.0,0.0
75.512923,0.7313290238380432,-0.7340409755706787,-8.63232135772705,0.0,0.0,0.0
75.612907,0.1915000081062317,-0.5859135389328003,-10.014403343200684,0.0,0.0,0.0
75.712907,0.37987297773361206,-0.6787861585617065,-9.09526252746582,0.0,0.0,0.0
75.812907,0.302864670753479,-0.6051314473152161,-9.290886878967285,0.0,0.0,0.0
75.912909,0.8907312154769897,-0.4859488904476166,-9.321773529052734,0.0,0.0,0.0
76.012907,0.3918256163597107,-0.25036120414733887,-10.00152587890625,0.0,0.0,0.0
76.112908,0.6046248078346252,-0.555596649646759,-9.401010513305664,0.0,0.0,0.0
76.212907,0.4889219403266907,-0.3109078109264374,-8.63475227355957,0.0,0.0,0.0
76.312907,0.5191515684127808,-0.48845359683036804,-9.286993980407715,0.0,0.0,0.0
76.412907,0.4459459185600281,-0.5153142213821411,-9.341907501220703,0.0,0.0,0.0
76.512909,0.391135036945343,-0.5180777311325073,-9.360857963562012,0.0,0.0,0.0
76.613907,0.5026949644088745,-0.41471824049949646,-8.837751388549805,0.0,0.0,0.0
76.71394,0.48148518800735474,-0.3803945779800415,-10.263185501098633,0.0,0.0,0.0
76.813906,0.43561118841171265,-0.4804236888885498,-9.900236129760742,0.0,0.0,0.0
76.913907,0.38343045115470886,-0.6490430235862732,-9.235404968261719,0.0,0.0,0.0
77.013907,0.734752893447876,-0.7909547090530396,-8.285148620605469,0.0,0.0,0.0
77.113907,0.5518608093261719,-0.6071390509605408,-9.187036514282227,0.0,0.0,0.0
77.213907,0.6092123985290527,-0.8625926971435547,-8.784064292907715,0.0,0.0,0.0
77.313907,0.5064413547515869,-0.439646452665329,-9.343521118164062,0.0,0.0,0.0
77.413907,0.4457706809043884,-0.22851888835430145,-10.383131980895996,0.0,0.0,0.0
77.513907,0.5602455139160156,-0.2828924059867859,-9.8427095413208,0.0,0.0,0.0
77.613907,0.42797473073005676,-0.5715984106063843,-9.814109802246094,0.0,0.0,0.0
77.713907,0.661224365234375,-0.5480213761329651,-8.65642261505127,0.0,0.0,0.0
77.813907,0.549431324005127,-0.7910287976264954,-8.581583023071289,0.0,0.0,0.0
77.913906,0.6464288830757141,-0.732319176197052,-9.137886047363281,0.0,0.0,0.0
78.01391,0.41691166162490845,-0.26637738943099976,-9.602624893188477,0.0,0.0,0.0
78.113908,0.537451982498169,-0.5113345384597778,-9.852099418640137,0.0,0.0,0.0
78.213906,0.8007534742355347,-0.8720656633377075,-8.343015670776367,0.0,0.0,0.0
78.313907,0.820151686668396,-0.6817575097084045,-9.15766716003418,0.0,0.0,0.0
78.413907,0.8297517895698547,-0.4483568072319031,-9.015067100524902,0.0,0.0,0.0
78.513906,0.6770330667495728,-0.987243115901947,-8.469573974609375,0.0,0.0,0.0
78.613907,0.11154792457818985,-1.0523979663848877,-9.913684844970703,0.0,0.0,0.0
78.713907,0.41206952929496765,-1.0202977657318115,-8.966290473937988,0.0,0.0,0.0
78.813926,0.4042505621910095,-0.4724518060684204,-9.835244178771973,0.0,0.0,0.0
78.913912,0.6143543720245361,-0.7219238877296448,-8.21158504486084,0.0,0.0,0.0
79.013907,0.5712448358535767,-0.6680418252944946,-9.2022705078125,0.0,0.0,0.0
79.113907,0.591767430305481,-1.0303244590759277,-9.713644027709961,0.0,0.0,0.0
79.213906,0.7027010917663574,-0.685343861579895,-8.742471694946289,0.0,0.0,0.0
79.313907,0.57442706823349,-0.6548778414726257,-8.414196014404297,0.0,0.0,0.0
79.413907,0.407175213098526,-0.328428715467453,-10.223809242248535,0.0,0.0,0.0
79.513907,0.3874641954898834,-1.0230069160461426,-8.98164176940918,0.0,0.0,0.0
79.613907,0.17682157456874847,-0.6928173899650574,-9.125663757324219,0.0,0.0,0.0
79.713907,0.36050117015838623,-0.6333620548248291,-9.045452117919922,0.0,0.0,0.0
79.813907,0.5788937211036682,-0.9880236983299255,-9.69873046875,0.0,0.0,0.0
79.913907,0.4941495358943939,-0.9022132158279419,-9.187549591064453,0.0,0.0,0.0
80.013906,0.4752430319786072,-0.6558666229248047,-9.576866149902344,0.0,0.0,0.0
80.113919,0.7515577077865601,-0.73319411277771,-8.727315902709961,0.0,0.0,0.0
80.213907,0.585871696472168,-1.2026945352554321,-8.910876274108887,0.0,0.0,0.0
80.313907,0.5124854445457458,-0.7515550851821899,-9.08577823638916,0.0,0.0,0.0
80.413907,0.2705133259296417,-0.8809489011764526,-8.824111938476562,0.0,0.0,0.0
80.514909,0.31684741377830505,-0.6967796087265015,-9.83973217010498,0.0,0.0,0.0
80.61391,0.10186062753200531,-0.9350922107696533,-9.178300857543945,0.0,0.0,0.0
80.713907,0.2883671522140503,-0.7529739737510681,-8.948200225830078,0.0,0.0,0.0
80.813907,0.3614479899406433,-0.588138222694397,-9.044231414794922,0.0,0.0,0.0
80.913906,0.39380738139152527,-0.6505635976791382,-9.057164192199707,0.0,0.0,0.0
81.013907,0.11877262592315674,-0.5824822187423706,-9.555501937866211,0.0,0.0,0.0
81.113907,0.43124744296073914,-0.8390627503395081,-9.122486114501953,0.0,0.0,0.0
81.214908,0.24650761485099792,-0.9722258448600769,-9.540448188781738,0.0,0.0,0.0
81.313906,0.3727630078792572,-0.7833338379859924,-9.331452369689941,0.0,0.0,0.0
81.413907,0.46933072805404663,-1.099287986755371,-8.898640632629395,0.0,0.0,0.0
81.513907,0.3186836838722229,-1.1124943494796753,-9.11910629272461,0.0,0.0,0.0
81.614907,0.12412583827972412,-0.8020591735839844,-8.989559173583984,0.0,0.0,0.0
81.713906,0.2986215651035309,-1.0988388061523438,-8.877483367919922,0.0,0.0,0.0
81.814907,0.363430917263031,-0.889408528804779,-9.984482765197754,0.0,0.0,0.0
81.913907,0.396436870098114,-1.0581990480422974,-9.346511840820312,0.0,0.0,0.0
82.013906,0.33945542573928833,-0.9618189930915833,-9.531058311462402,0.0,0.0,0.0
82.114907,0.5502200722694397,-1.0454539060592651,-9.03238296508789,0.0,0.0,0.0
82.213907,0.3925313949584961,-1.03092360496521,-9.055143356323242,0.0,0.0,0.0
82.314907,0.12106102705001831,-1.1814543008804321,-9.142534255981445,0.0,0.0,0.0
82.41392,0.4912460446357727,-1.0186716318130493,-9.068408012390137,0.0,0.0,0.0
82.513907,-0.09642907977104187,-1.1718744039535522,-9.418429374694824,0.0,0.0,0.0
82.61392,0.20747797191143036,-0.7467635869979858,-9.52523422241211,0.0,0.0,0.0
82.714907,0.3441739082336426,-0.953858494758606,-9.251127243041992,0.0,0.0,0.0
82.814907,0.5046380162239075,-0.6927217841148376,-9.445950508117676,0.0,0.0,0.0
82.914918,0.5657464265823364,-1.068483829498291,-8.938379287719727,0.0,0.0,0.0
83.014906,0.2540254294872284,-1.0628926753997803,-8.482205390930176,0.0,0.0,0.0
83.114907,0.2295597791671753,-0.7299543023109436,-9.671730041503906,0.0,0.0,0.0
83.214907,0.6193282604217529,-0.8944300413131714,-9.12689208984375,0.0,0.0,0.0
83.314907,0.26822298765182495,-0.7724094390869141,-9.088518142700195,0.0,0.0,0.0
83.414907,0.9024045467376709,-0.8832429051399231,-9.079971313476562,0.0,0.0,0.0
83.514906,0.26224827766418457,-0.6686156392097473,-9.041744232177734,0.0,0.0,0.0
83.614906,0.6246136426925659,-0.8377382159233093,-9.521955490112305,0.0,0.0,0.0
83.715909,0.45202696323394775,-0.7480018734931946,-8.595785140991211,0.0,0.0,0.0
83.815908,0.7318055629730225,-0.9174516201019287,-9.744782447814941,0.0,0.0,0.0
83.915908,0.38108810782432556,-0.5618141889572144,-9.912403106689453,0.0,0.0,0.0
84.015907,0.7583291530609131,-0.6725318431854248,-9.162327766418457,0.0,0.0,0.0
84.115909,0.5547714829444885,-0.9096710085868835,-9.2274751663208,0.0,0.0,0.0
84.215914,0.10830345004796982,-0.7982280850410461,-9.070818901062012,0.0,0.0,0.0
84.315907,0.3959810435771942,-0.8896980881690979,-8.932157516479492,0.0,0.0,0.0
84.415907,0.17093968391418457,-0.9533462524414062,-9.768731117248535,0.0,0.0,0.0
84.515907,-0.07834230363368988,-1.0334463119506836,-9.126819610595703,0.0,0.0,0.0
84.615908,0.44308027625083923,-0.5448075532913208,-9.193689346313477,0.0,0.0,0.0
84.715908,0.2834142744541168,-0.7332220673561096,-9.671762466430664,0.0,0.0,0.0
84.815907,0.3314273953437805,-0.7889400720596313,-9.461976051330566,0.0,0.0,0.0
84.915908,0.3963099718093872,-0.8121201395988464,-9.110360145568848,0.0,0.0,0.0
85.015907,0.17274311184883118,-0.5595874786376953,-9.577337265014648,0.0,0.0,0.0
85.115907,0.6080189943313599,-0.8397722244262695,-9.566694259643555,0.0,0.0,0.0
85.215907,0.2978608310222626,-0.9067960381507874,-9.155953407287598,0.0,0.0,0.0
85.315909,0.4290626347064972,-0.8269931077957153,-8.74700927734375,0.0,0.0,0.0
85.415907,0.44130152463912964,-0.6969712376594543,-9.172281265258789,0.0,0.0,0.0
85.515907,0.03131900727748871,-0.7225394248962402,-9.690897941589355,0.0,0.0,0.0
85.615907,0.6183226704597473,-0.6142481565475464,-9.17527961730957,0.0,0.0,0.0
85.715906,0.303280770778656,-0.7314783334732056,-8.661094665527344,0.0,0.0,0.0
85.815907,0.5456788539886475,-0.6849009990692139,-9.310537338256836,0.0,0.0,0.0
85.915907,0.27154117822647095,-0.9169518947601318,-9.369393348693848,0.0,0.0,0.0
86.015907,0.3602929711341858,-0.8530430197715759,-8.999004364013672,0.0,0.0,0.0
86.115907,0.5413780212402344,-0.2866121232509613,-9.048110008239746,0.0,0.0,0.0
86.215907,0.16360697150230408,-0.6422604322433472,-9.64555835723877,0.0,0.0,0.0
86.315908,0.6484955549240112,-0.7865796685218811,-9.307332038879395,0.0,0.0,0.0
86.415907,0.36191922426223755,-0.5089598298072815,-9.410466194152832,0.0,0.0,0.0
86.515907,0.5442155599594116,-0.48952940106391907,-9.342756271362305,0.0,0.0,0.0
86.61591,0.19861453771591187,-0.8123205900192261,-8.507440567016602,0.0,0.0,0.0
86.715907,0.22044534981250763,-0.752013087272644,-9.257166862487793,0.0,0.0,0.0
86.815907,0.7289428114891052,-0.8943364024162292,-8.892539024353027,0.0,0.0,0.0
86.915906,0.15122169256210327,-0.6439316272735596,-8.745545387268066,0.0,0.0,0.0
87.015907,0.6158711910247803,-0.3916679918766022,-9.486129760742188,0.0,0.0,0.0
87.115907,0.2119280844926834,-0.6402773261070251,-9.920915603637695,0.0,0.0,0.0
87.215906,0.3551972806453705,-0.7835870981216431,-9.169727325439453,0.0,0.0,0.0
87.315907,0.22147974371910095,-0.5750539302825928,-9.094472885131836,0.0,0.0,0.0
87.415907,0.5969669818878174,-0.5900939702987671,-9.9111909866333,0.0,0.0,0.0
87.515906,0.380495548248291,-0.6566933989524841,-9.039299011230469,0.0,0.0,0.0
87.615931,0.5593706369400024,-0.5394832491874695,-9.529655456542969,0.0,0.0,0.0
87.715906,0.40963008999824524,-0.7771288752555847,-8.955907821655273,0.0,0.0,0.0
87.815906,0.6175917387008667,-0.5630779266357422,-9.352219581604004,0.0,0.0,0.0
87.915907,0.38180747628211975,-0.5320708155632019,-9.78866958618164,0.0,0.0,0.0
88.015907,0.7207966446876526,-0.7866246700286865,-8.914999008178711,0.0,0.0,0.0
88.115907,0.36481720209121704,-0.8679530620574951,-9.126153945922852,0.0,0.0,0.0
88.215916,0.8622983694076538,-0.9526294469833374,-8.873355865478516,0.0,0.0,0.0
88.315908,0.4322906732559204,-0.665668249130249,-9.701074600219727,0.0,0.0,0.0
88.415907,0.641491174697876,-0.7909080386161804,-8.854658126831055,0.0,0.0,0.0
88.515907,0.5541989207267761,-0.7975208759307861,-9.609321594238281,0.0,0.0,0.0
88.61591,0.3388327360153198,-0.5483998656272888,-9.646308898925781,0.0,0.0,0.0
88.715907,0.5824949145317078,-0.6798858642578125,-9.336660385131836,0.0,0.0,0.0
88.815907,0.3394927680492401,-0.9123079776763916,-8.983074188232422,0.0,0.0,0.0
88.915907,0.16746845841407776,-0.8430889248847961,-9.154458045959473,0.0,0.0,0.0
89.015908,0.5083919167518616,-0.7537002563476562,-9.367879867553711,0.0,0.0,0.0
89.115907,0.5571853518486023,-0.972081184387207,-9.370706558227539,0.0,0.0,0.0
89.21591,0.2625499367713928,-0.9010882377624512,-9.144001007080078,0.0,0.0,0.0
89.315907,0.7473657727241516,-0.6739934682846069,-9.131442070007324,0.0,0.0,0.0
89.415907,0.3228721618652344,-0.6351878643035889,-9.59830379486084,0.0,0.0,0.0
89.515907,0.45798712968826294,-0.7300480604171753,-9.23640251159668,0.0,0.0,0.0
89.615907,0.7788646221160889,-0.773676872253418,-8.92053508758545,0.0,0.0,0.0
89.715907,0.612067461013794,-0.7787376642227173,-9.294601440429688,0.0,0.0,0.0
89.815907,0.6310300827026367,-1.037175178527832,-8.675626754760742,0.0,0.0,0.0
89.915907,0.5988690853118896,-1.1757394075393677,-9.080005645751953,0.0,0.0,0.0
90.015907,0.2767944037914276,-0.8228563070297241,-9.446203231811523,0.0,0.0,0.0
90.115907,0.7632270455360413,-0.9310461282730103,-9.068150520324707,0.0,0.0,0.0
90.215907,0.681460976600647,-1.0121562480926514,-9.838691711425781,0.0,0.0,0.0
90.316907,0.6352889537811279,-0.9287899136543274,-9.588237762451172,0.0,0.0,0.0
90.415909,0.65477055311203,-0.9934954643249512,-9.343476295471191,-0.028776008635759354,0.014469008892774582,0.04131176322698593
90.515907,0.8782235980033875,-1.1782245635986328,-8.686704635620117,0.0,0.0,0.0
90.616908,0.5117728114128113,-1.042360782623291,-9.739633560180664,0.0,0.0,0.0
90.716907,0.376895010471344,-1.3192024230957031,-8.862310409545898,0.0,0.0,0.0
90.816907,0.5591229200363159,-1.116027593612671,-9.94669246673584,0.0,0.0,0.0
90.916907,0.6115562319755554,-1.1061229705810547,-9.569982528686523,0.0,0.0,0.0
91.016908,0.4339951276779175,-1.057917833328247,-9.446170806884766,0.0,0.0,0.0
91.116907,0.492423415184021,-0.5805700421333313,-9.632454872131348,0.0,0.0,0.0
91.216908,0.8653558492660522,-0.8404011726379395,-9.24026870727539,0.0,0.0,0.0
91.316907,0.6880130767822266,-0.7448294162750244,-9.978612899780273,0.0,0.0,0.0
91.41691,0.4822744131088257,-0.9602759480476379,-9.645617485046387,0.0,0.0,0.0
91.516913,0.4725707173347473,-1.2170647382736206,-9.234564781188965,0.0,0.0,0.0
91.616918,0.717674970626831,-0.8779159784317017,-9.11688232421875,0.0,0.0,0.0
91.716924,0.31154224276542664,-0.9920639991760254,-9.44809341430664,-0.05085137486457825,0.06863795220851898,-0.010973859578371048
91.816921,0.13982033729553223,-0.922310471534729,-8.854704856872559,0.0,0.0,0.0
91.91691,0.5650025010108948,-0.792396068572998,-9.440070152282715,-0.04943613335490227,0.06523211300373077,0.003029590705409646
92.016912,0.39767104387283325,-0.8004761338233948,-9.322261810302734,0.01666935160756111,-0.06478895246982574,0.017421944066882133
92.116907,0.565723180770874,-0.7324039340019226,-8.844902038574219,0.07247021049261093,-0.034136559814214706,0.011227129958570004
92.216909,0.5212113261222839,-0.9968037605285645,-8.8414306640625,-0.0064097517170012,-0.11237378418445587,0.01367033738642931
92.316913,0.4448850452899933,-0.7291243076324463,-8.911994934082031,-0.003613195614889264,-0.12599729001522064,0.01908227428793907
92.417907,0.15910524129867554,-0.8673388361930847,-9.497050285339355,0.0,0.0,0.0
92.517907,0.28861433267593384,-0.4371655583381653,-9.397395133972168,0.0,0.0,0.0
92.617907,0.40985924005508423,-0.6563065648078918,-9.068798065185547,0.0,0.0,0.0
92.717914,0.36624035239219666,-0.687158465385437,-8.84895133972168,0.0,0.0,0.0
92.817915,0.7632626295089722,-0.9533780217170715,-8.775642395019531,0.0,0.0,0.0
92.917907,0.038742899894714355,-0.6693409085273743,-9.902349472045898,0.0,0.0,0.0
93.017907,0.5570828914642334,-0.6499729156494141,-9.405302047729492,0.0,0.0,0.0
93.117907,0.3558860719203949,-0.47045573592185974,-9.745622634887695,0.0,0.0,0.0
93.217907,0.5716090202331543,-0.3621933162212372,-9.012911796569824,0.0,0.0,0.0
93.317907,0.2634495496749878,-0.6691227555274963,-9.80811882019043,0.0,0.0,0.0
93.417907,0.46989905834198,-0.5292947292327881,-9.025888442993164,0.0,0.0,0.0
93.517907,0.4357227385044098,-0.4663046598434448,-9.393868446350098,0.0,0.0,0.0
93.617908,0.455317884683609,-0.8284285664558411,-9.132013320922852,0.0,0.0,0.0
93.717914,0.3662814497947693,-0.9024980068206787,-8.782822608947754,0.010651612654328346,0.008480260148644447,0.06667675822973251
93.817907,0.22339865565299988,-1.099968433380127,-9.476617813110352,0.0,0.0,0.0
93.917912,0.3059885799884796,-0.7566801905632019,-9.49309253692627,0.0,0.0,0.0
94.017907,0.23544460535049438,-0.49170607328414917,-9.942275047302246,0.0,0.0,0.0
94.118907,0.5200229287147522,-0.4224044978618622,-9.165971755981445,0.0,0.0,0.0
94.21792,0.7029925584793091,-0.4262811541557312,-9.22088623046875,0.0,0.0,0.0
94.317907,0.5262393951416016,-0.3792704939842224,-9.602829933166504,0.0,0.0,0.0
94.417907,0.35321947932243347,-0.7475331425666809,-9.530131340026855,0.04603252559900284,-0.01854107528924942,0.01868072897195816
94.518907,0.6039005517959595,-0.861179769039154,-9.670239448547363,0.0,0.0,0.0
94.617907,0.37186485528945923,-0.8561003804206848,-9.385095596313477,0.0,0.0,0.0
94.717907,0.12556210160255432,-0.853583812713623,-9.79122543334961,-0.15953940153121948,0.10739798098802567,0.025987425819039345
94.818907,0.4639374613761902,-0.8161144852638245,-8.91919231414795,0.0,0.0,0.0
94.918907,0.9007216691970825,-0.9813274145126343,-8.601653099060059,0.0,0.0,0.0
95.017907,0.6268798112869263,-0.7488752007484436,-8.797719955444336,0.0,0.0,0.0
95.118907,0.28199303150177,-0.9189842939376831,-9.20468521118164,0.0,0.0,0.0
95.218907,0.24972450733184814,-0.7319980263710022,-8.862865447998047,0.0,0.0,0.0
95.318907,0.6587408185005188,-0.5733412504196167,-9.743644714355469,0.0,0.0,0.0
95.418907,0.5279755592346191,-0.713084876537323,-8.520425796508789,0.0,0.0,0.0
95.518907,0.2291916012763977,-0.649665355682373,-9.677610397338867,0.0,0.0,0.0
95.61891,-0.0813504308462143,-0.34656742215156555,-10.288065910339355,0.0,0.0,0.0
95.718923,0.4403015971183777,-0.19585631787776947,-10.353291511535645,0.0,0.0,0.0
95.818907,0.9073912501335144,-0.8439047932624817,-7.49863338470459,0.0,0.0,0.0
95.918907,0.41944366693496704,-0.6621061563491821,-9.09967041015625,0.0,0.0,0.0
96.018921,0.1666932851076126,-0.4673301577568054,-9.659178733825684,0.0,0.0,0.0
96.118907,0.007622614968568087,-0.8222064971923828,-7.486911773681641,0.0,0.0,0.0
96.218911,0.2007664144039154,-0.4706621766090393,-9.294395446777344,0.0,0.0,0.0
96.318907,0.35444602370262146,-0.7930358648300171,-9.35905647277832,0.0,0.0,0.0
96.418909,0.27460068464279175,-0.4232092499732971,-9.322031021118164,0.0,0.0,0.0
96.518916,0.37326663732528687,-0.40697017312049866,-9.138750076293945,0.0,0.0,0.0
96.61892,0.1790454387664795,-0.1651410013437271,-9.718995094299316,0.0,0.0,0.0
96.718927,0.17983150482177734,-0.4027160406112671,-9.127531051635742,0.0,0.0,0.0
96.81893,0.08997058868408203,-0.4408608078956604,-9.966533660888672,0.0,0.0,0.0
96.918923,0.30513548851013184,-0.6633531451225281,-9.31660270690918,-0.09070348739624023,-0.03839043155312538,0.018269388005137444
97.018907,0.30116087198257446,-0.4526020288467407,-9.39332389831543,0.0,0.0,0.0
97.118907,0.48122334480285645,-0.24472004175186157,-8.66772747039795,0.0,0.0,0.0
97.218907,0.613460898399353,-0.17530286312103271,-10.232112884521484,0.0,0.0,0.0
97.319907,0.1512729972600937,-0.3296937644481659,-9.945722579956055,0.0,0.0,0.0
97.418909,0.2724839746952057,-0.669058084487915,-9.1481351852417,0.052440378814935684,-0.020250849425792694,0.04411831498146057
97.518907,0.17244850099086761,-0.22824950516223907,-9.14088249206543,0.0,0.0,0.0
97.618907,0.3090706467628479,-0.4863612651824951,-9.08249568939209,0.0,0.0,0.0
97.718909,0.34448885917663574,-0.380993515253067,-9.169808387756348,0.0,0.0,0.0
97.818909,0.7625550031661987,-0.836800754070282,-8.52635383605957,0.0,0.0,0.0
97.918907,0.5744667053222656,-0.4719494879245758,-8.816285133361816,0.0,0.0,0.0
98.018908,0.5746811032295227,-0.7239294648170471,-8.875005722045898,0.0,0.0,0.0
98.118914,0.4644595980644226,-0.3017430901527405,-10.041892051696777,0.0,0.0,0.0
98.218907,0.3336707353591919,-0.5257748961448669,-9.72752571105957,0.0,0.0,0.0
98.318907,0.3794957399368286,-0.6904187202453613,-9.811413764953613,0.0,0.0,0.0
98.419927,0.4767236113548279,-0.7376481890678406,-8.813974380493164,0.0,0.0,0.0
98.519907,0.6023367047309875,-1.3429940938949585,-7.7070722579956055,0.0,0.0,0.0
98.619907,0.5310214757919312,-0.4592081904411316,-9.367382049560547,0.0,0.0,0.0
98.718909,0.5270587801933289,-1.0695991516113281,-9.331756591796875,0.0,0.0,0.0
98.818907,0.5666884779930115,-0.5406678915023804,-9.36878776550293,0.0,0.0,0.0
98.91891,0.5872452855110168,-1.078629970550537,-7.928310394287109,0.0,0.0,0.0
99.020907,0.5782201290130615,-0.38607001304626465,-9.576685905456543,0.0,0.0,0.0
99.120907,0.3315874934196472,-0.8652004599571228,-8.955963134765625,0.0,0.0,0.0
99.219907,0.48733121156692505,-0.5755747556686401,-9.660377502441406,0.0,0.0,0.0
99.319906,0.5082014203071594,-0.7836730480194092,-9.5552978515625,0.0,0.0,0.0
99.419912,0.8626528382301331,-1.3360037803649902,-7.894734859466553,0.0,0.0,0.0
99.519907,1.05155611038208,-1.4657723903656006,-7.654906272888184,0.0,0.0,0.0
99.619917,0.6238528490066528,-0.5539035797119141,-10.27235221862793,0.0,0.0,0.0
99.719911,0.8874099850654602,-0.6572102308273315,-9.398893356323242,0.0,0.0,0.0
99.819907,0.8748774528503418,-1.1150014400482178,-8.427407264709473,0.0,0.0,0.0
99.91991,0.6690655946731567,-0.8233510255813599,-9.077651977539062,0.0,0.0,0.0
100.019911,1.0786244869232178,-0.836081862449646,-8.518872261047363,0.0,0.0,0.0
100.119907,0.9041253328323364,-0.9466696381568909,-8.281994819641113,0.0,0.0,0.0
100.219913,0.793887734413147,-0.6465766429901123,-9.523872375488281,0.0,0.0,0.0
100.31991,0.9180295467376709,-0.9902949929237366,-8.587106704711914,0.0,0.0,0.0
100.41991,0.9225592613220215,-1.0016926527023315,-9.21352481842041,0.0,0.0,0.0
100.520907,0.6424291729927063,-0.8524484634399414,-8.953617095947266,0.0,0.0,0.0
100.619907,0.8235868215560913,-0.9306203126907349,-9.809006690979004,0.0,0.0,0.0
100.719909,0.494966983795166,-0.9276127815246582,-8.602852821350098,0.0,0.0,0.0
100.819907,0.54497891664505,-0.7224940657615662,-10.030226707458496,0.0,0.0,0.0
100.919907,0.40119469165802,-0.1544056087732315,-10.743371963500977,0.0,0.0,0.0
101.020907,1.220926284790039,-0.8728893995285034,-8.599462509155273,0.0,0.0,0.0
101.119906,1.0383580923080444,-0.987238883972168,-9.187457084655762,0.0,0.0,0.0
101.219921,1.0333067178726196,-1.178611397743225,-8.949116706848145,0.0,0.0,0.0
101.319906,0.9570650458335876,-0.982935905456543,-9.574357986450195,0.0,0.0,0.0
101.420909,1.0605579614639282,-1.4403445720672607,-8.458149909973145,0.0,0.0,0.0
101.520913,1.079289436340332,-1.0193103551864624,-9.313458442687988,0.0,0.0,0.0
101.619907,0.7332843542098999,-0.7333142161369324,-9.853424072265625,0.0,0.0,0.0
101.72091,1.0791326761245728,-0.9506506323814392,-8.918315887451172,0.0,0.0,0.0
101.820907,0.819891095161438,-0.7926989197731018,-9.494709014892578,0.0,0.0,0.0
101.919908,0.9091578722000122,-0.7848538160324097,-9.443323135375977,-0.012775692157447338,-0.06836535036563873,0.03189554065465927
102.020914,1.0810471773147583,-1.1143646240234375,-8.9688720703125,0.0,0.0,0.0
102.120907,1.1815290451049805,-1.2369639873504639,-9.14425277709961,0.0,0.0,0.0
102.219907,1.037074089050293,-1.0158644914627075,-9.030661582946777,0.0,0.0,0.0
102.319907,0.68628990650177,-1.2400071620941162,-9.296500205993652,0.0,0.0,0.0
102.42091,0.8969270586967468,-0.7630970478057861,-8.854362487792969,0.0,0.0,0.0
102.520909,1.1491353511810303,-0.8501259088516235,-9.592632293701172,0.0,0.0,0.0
102.620908,0.845123291015625,-0.557404637336731,-9.308357238769531,0.0,0.0,0.0
102.720907,0.7940250039100647,-0.9066300392150879,-9.283407211303711,0.0,0.0,0.0
102.820907,0.89982008934021,-0.9419608116149902,-9.388884544372559,0.0032615382224321365,-0.03842078521847725,0.005640599876642227
102.920907,0.9231902956962585,-1.1205925941467285,-8.87235164642334,0.0,0.0,0.0
103.020907,0.7953413724899292,-0.83467698097229,-8.514071464538574,-0.0112780025228858,0.016692837700247765,-0.0003800602862611413
103.120907,1.2211682796478271,-1.2657206058502197,-8.534697532653809,0.0,0.0,0.0
103.221933,0.9852160811424255,-0.9753959774971008,-9.182299613952637,0.0,0.0,0.0
103.320907,0.9535052180290222,-0.7776767015457153,-9.226228713989258,0.0,0.0,0.0
103.420907,1.2086608409881592,-1.0222892761230469,-9.142335891723633,0.0,0.0,0.0
103.520907,0.7152625918388367,-0.6658854484558105,-9.422154426574707,0.0,0.0,0.0
103.620908,0.7154252529144287,-0.7155417203903198,-9.20764446258545,0.0,0.0,0.0
103.720907,1.0375548601150513,-1.0025306940078735,-10.077716827392578,0.0,0.0,0.0
103.820909,0.6442344188690186,-0.9775826930999756,-10.609087944030762,0.0,0.0,0.0
103.920907,0.9534848928451538,-1.1623973846435547,-8.602570533752441,0.0,0.0,0.0
104.020906,1.3451533317565918,-1.0384321212768555,-8.944507598876953,0.0,0.0,0.0
104.120907,0.8009090423583984,-1.0124937295913696,-9.204214096069336,0.0,0.0,0.0
104.221907,1.0386741161346436,-1.0607246160507202,-9.406366348266602,0.0,0.0,0.0
104.321908,1.3221102952957153,-1.288428544998169,-9.050976753234863,0.0,0.0,0.0
104.420907,0.7966606616973877,-1.2909234762191772,-9.485065460205078,0.0,0.0,0.0
104.521908,0.9588273763656616,-1.3288506269454956,-9.65073299407959,0.0,0.0,0.0
104.621909,1.067885160446167,-1.1648471355438232,-9.481027603149414,0.0,0.0,0.0
104.721907,0.6224499940872192,-0.8337979912757874,-9.327133178710938,0.0,0.0,0.0
104.821912,0.6722630262374878,-0.8626199960708618,-9.953913688659668,0.0,0.0,0.0
104.921909,0.6916197538375854,-0.41924798488616943,-9.631998062133789,0.0,0.0,0.0
105.021916,0.6342999935150146,-0.5111241340637207,-10.589509963989258,0.0,0.0,0.0
105.120911,0.42784613370895386,-0.6653441786766052,-9.923827171325684,0.00018266949336975813,-0.009595414623618126,0.07952915132045746
105.220907,0.6394833922386169,-0.8305983543395996,-8.966551780700684,0.0,0.0,0.0
105.320907,0.6067945957183838,-0.6555097103118896,-9.496355056762695,0.02659369446337223,-0.001010281266644597,0.09061218798160553
105.420907,0.6821581125259399,-0.8643757104873657,-9.110884666442871,-0.02612324431538582,-0.012809531763195992,0.03986627608537674
105.52091,0.6126171350479126,-0.779384195804596,-9.124507904052734,0.028318949043750763,-0.004951218608766794,0.052751325070858
105.620907,0.7954938411712646,-1.0545058250427246,-8.17030143737793,-0.038493819534778595,0.028181856498122215,0.03780297189950943
105.720907,0.7375356554985046,-0.720284104347229,-8.213045120239258,-0.14701011776924133,0.011888068169355392,0.018189899623394012
105.820907,0.8824930191040039,-0.5579922795295715,-9.073038101196289,0.06498472392559052,-0.05507887154817581,0.03699411451816559
105.92091,0.8275390863418579,-0.5274888277053833,-9.439228057861328,-0.04118870571255684,-0.1571245938539505,0.014260662719607353
106.020919,0.6210368275642395,-0.6910597085952759,-9.436062812805176,0.03204020857810974,-0.04028104990720749,0.014727044850587845
106.120911,0.6048769950866699,-0.8514308333396912,-8.459105491638184,0.038318365812301636,-0.05937677249312401,0.0008263920899480581
106.220917,0.24634191393852234,-0.3185809850692749,-9.158872604370117,-0.06728315353393555,-0.048909712582826614,0.015862315893173218
106.320923,0.8076252937316895,-0.4849158525466919,-9.328081130981445,-0.023094329982995987,-0.07798648625612259,-0.0020602489821612835
106.420933,0.6854536533355713,-0.5926486253738403,-9.541473388671875,-0.010411468334496021,-0.12143995612859726,0.016376342624425888
106.52094,0.4035891592502594,-0.902151346206665,-8.8548002243042,-0.020177103579044342,0.049568060785532,0.02932244911789894
106.621908,0.6376595497131348,-0.3956269919872284,-9.288313865661621,0.0,0.0,0.0
106.720955,0.8894950151443481,-0.4619000554084778,-9.107629776000977,0.09729331731796265,-0.13670358061790466,0.01685638166964054
106.820952,0.25617527961730957,-0.3112938702106476,-10.29355525970459,-0.032593462616205215,-0.03071403130888939,0.003630400635302067
106.92191,0.3951149582862854,-0.41797345876693726,-9.260679244995117,0.0,0.0,0.0
107.021908,0.41315552592277527,-0.5582578182220459,-8.743611335754395,0.0,0.0,0.0
107.121907,0.4351429343223572,-0.8876335024833679,-9.40660285949707,-0.10486204922199249,0.06917504966259003,0.03557051718235016
107.221907,0.8461983799934387,-0.7159634232521057,-8.718157768249512,0.0,0.0,0.0
107.32291,0.36805498600006104,-0.3687003552913666,-9.43390941619873,0.0,0.0,0.0
107.421908,0.5299435257911682,-0.6797195076942444,-9.333637237548828,-0.005958762485533953,-0.10302059352397919,0.054352354258298874
107.521907,0.46707016229629517,-0.46146833896636963,-9.3386812210083,0.049863070249557495,-0.01621909625828266,0.04018492251634598
107.621907,0.5548601150512695,-0.5384914875030518,-9.85445499420166,0.0163778867572546,-0.04894224554300308,0.040362995117902756
107.721907,0.5914856195449829,-0.6615427732467651,-9.36091136932373,-0.001018949318677187,0.023056507110595703,0.04434526711702347
107.822908,0.149307981133461,-0.472635954618454,-9.70166015625,0.0,0.0,0.0
107.922907,0.15963825583457947,-0.44091641902923584,-9.054113388061523,0.0,0.0,0.0
108.022907,0.49494820833206177,-0.6310810446739197,-8.960987091064453,0.0,0.0,0.0
108.122908,0.6110162734985352,-0.45915287733078003,-9.530603408813477,0.0,0.0,0.0
108.223907,0.9190908670425415,-0.08151991665363312,-8.940667152404785,0.0,0.0,0.0
108.322907,0.6436794996261597,-0.7037212252616882,-8.849207878112793,0.0,0.0,0.0
108.423907,0.8153125047683716,-0.7862181663513184,-8.907197952270508,0.0,0.0,0.0
108.522909,0.9467280507087708,-0.6066011786460876,-8.684758186340332,0.0,0.0,0.0
108.623912,0.5755839943885803,-0.3305688202381134,-9.205297470092773,0.0,0.0,0.0
108.72391,0.3811323642730713,-0.37271493673324585,-9.49116325378418,0.0,0.0,0.0
108.823909,0.8143399953842163,-0.3631746768951416,-9.025781631469727,0.0,0.0,0.0
108.923907,0.44671568274497986,-0.502385139465332,-9.299928665161133,0.0,0.0,0.0
109.022912,0.4220498502254486,-0.5043308734893799,-9.051965713500977,0.0,0.0,0.0
109.123919,0.3911212086677551,-0.6722627878189087,-9.163274765014648,0.0,0.0,0.0
109.223948,0.5893441438674927,-0.5379398465156555,-9.705921173095703,0.0,0.0,0.0
109.323934,0.2831863760948181,-0.7845962643623352,-9.481376647949219,0.0,0.0,0.0
109.423941,0.5398162007331848,-0.9681967496871948,-8.985443115234375,0.0,0.0,0.0
109.523929,0.3924103081226349,-0.775983452796936,-8.767155647277832,0.0,0.0,0.0
109.623909,0.1904129534959793,-0.5790042877197266,-9.753220558166504,0.0,0.0,0.0
109.723907,0.2665089964866638,-1.0168246030807495,-8.591551780700684,0.0,0.0,0.0
109.823907,0.40248745679855347,-0.9762875437736511,-9.110042572021484,0.0,0.0,0.0
109.923907,0.2319554090499878,-1.1824952363967896,-9.25662612915039,0.0,0.0,0.0
110.024912,-0.05432801693677902,-0.6562219858169556,-9.154571533203125,0.0,0.0,0.0
110.124907,0.25428980588912964,-0.15652944147586823,-9.47901725769043,0.0,0.0,0.0
110.225909,0.42622846364974976,-0.8295853137969971,-9.209829330444336,0.0,0.0,0.0
110.324913,0.13013339042663574,-1.1181477308273315,-9.34863567352295,0.0,0.0,0.0
110.425913,-0.08308716118335724,-1.0283318758010864,-9.401013374328613,0.0,0.0,0.0
110.524909,0.24107182025909424,-0.5874245166778564,-9.530470848083496,0.0,0.0,0.0
110.62491,0.15183329582214355,-0.6628406047821045,-8.843682289123535,0.0,0.0,0.0
110.724907,0.28816673159599304,-0.7703746557235718,-8.993884086608887,0.0,0.0,0.0
110.824909,0.20947837829589844,-0.42076799273490906,-9.537053108215332,0.0,0.0,0.0
110.924907,0.03833581507205963,-0.46809306740760803,-9.185700416564941,0.0,0.0,0.0
111.024907,0.08528964221477509,-0.6379262804985046,-8.814337730407715,0.0,0.0,0.0
111.125907,0.31187018752098083,-1.0834190845489502,-8.977691650390625,0.0,0.0,0.0
111.22491,-0.023633921518921852,-1.1324678659439087,-9.568665504455566,0.0,0.0,0.0
111.325909,0.13655254244804382,-0.9542529582977295,-8.824028968811035,0.0,0.0,0.0
111.424907,0.20278337597846985,-1.1330726146697998,-8.697982788085938,0.0,0.0,0.0
111.524907,0.45320603251457214,-0.6342756748199463,-10.039642333984375,0.0,0.0,0.0
111.625907,0.21071857213974,-0.6589758992195129,-9.076967239379883,0.0,0.0,0.0
111.724911,0.21689510345458984,-0.7412478923797607,-9.083658218383789,0.0,0.0,0.0
111.824908,0.28753164410591125,-0.6709682941436768,-9.26027774810791,0.0,0.0,0.0
111.92491,-0.054856039583683014,-1.0366291999816895,-8.736275672912598,0.0,0.0,0.0
112.02591,0.24435308575630188,-1.2724162340164185,-9.258439064025879,0.0,0.0,0.0
112.124909,0.20997339487075806,-0.8641541004180908,-9.435033798217773,0.0,0.0,0.0
112.224908,0.4265187680721283,-1.5766931772232056,-8.03564453125,0.0,0.0,0.0
112.324919,0.2332582175731659,-0.8352698087692261,-9.453628540039062,0.0,0.0,0.0
112.424927,0.383038192987442,-1.3427157402038574,-8.683723449707031,0.0,0.0,0.0
112.524907,-0.03327295184135437,-1.2941207885742188,-8.70425796508789,0.0,0.0,0.0
112.624924,0.498096227645874,-0.8441470861434937,-9.508682250976562,0.0,0.0,0.0
112.725933,0.3602176308631897,-0.7617907524108887,-9.779406547546387,0.0,0.0,0.0
112.824921,0.14952711760997772,-1.2726495265960693,-9.099931716918945,0.0,0.0,0.0
112.92493,0.670969545841217,-1.3480241298675537,-9.194693565368652,0.0,0.0,0.0
113.024956,0.4274330735206604,-1.3144322633743286,-8.971887588500977,0.0,0.0,0.0
113.124906,0.26904910802841187,-1.106142282485962,-9.268070220947266,0.0,0.0,0.0
113.224908,0.5517820119857788,-0.8829931616783142,-9.172924041748047,0.0,0.0,0.0
113.324922,0.5089453458786011,-0.9343992471694946,-9.659648895263672,0.0,0.0,0.0
113.424924,0.04967568442225456,-0.9709763526916504,-9.935770034790039,0.0,0.0,0.0
113.524907,0.1462836116552353,-1.1856998205184937,-9.581521034240723,0.0,0.0,0.0
113.625909,0.4858933985233307,-1.3879704475402832,-9.444293975830078,0.0,0.0,0.0
113.724907,0.5782886147499084,-1.5713701248168945,-8.690528869628906,0.0,0.0,0.0
113.82591,0.5381940603256226,-1.6235531568527222,-8.740081787109375,0.0,0.0,0.0
113.925907,0.9411863088607788,-1.387355923652649,-8.739163398742676,0.0,0.0,0.0
114.024908,0.7805315256118774,-1.2247111797332764,-9.180719375610352,0.0,0.0,0.0
114.125907,0.435036301612854,-1.3692593574523926,-9.069210052490234,0.0,0.0,0.0
114.224907,0.6626462936401367,-0.8047680854797363,-9.858621597290039,0.0,0.0,0.0
114.325907,0.2060193419456482,-0.5338674187660217,-10.084410667419434,0.0,0.0,0.0
114.425909,0.4229443073272705,-0.5144668817520142,-9.904342651367188,0.0,0.0,0.0
114.525907,0.5531779527664185,-0.741020143032074,-9.861159324645996,0.0,0.0,0.0
114.625907,0.38737621903419495,-0.6409187912940979,-9.823616981506348,0.0,0.0,0.0
114.725914,0.8293607234954834,-0.843655526638031,-9.087119102478027,0.0,0.0,0.0
114.825908,0.7264337539672852,-1.1880626678466797,-9.05626106262207,0.0,0.0,0.0
114.925907,0.3302345871925354,-0.7995883822441101,-9.149232864379883,0.0,0.0,0.0
115.025907,0.5827343463897705,-1.2201869487762451,-8.508505821228027,0.0,0.0,0.0
115.12591,0.35588517785072327,-0.8936549425125122,-8.4782075881958,0.0,0.0,0.0
115.225916,0.4191470146179199,-0.7571491599082947,-8.858400344848633,0.0,0.0,0.0
115.325907,0.5586843490600586,-0.6212735772132874,-9.378776550292969,0.0,0.0,0.0
115.42591,0.6828145980834961,-0.5178596377372742,-9.294300079345703,0.0,0.0,0.0
115.525923,0.7423707246780396,-0.8941004276275635,-9.548819541931152,0.0,0.0,0.0
115.625907,0.5704696774482727,-0.8400980830192566,-9.55937671661377,0.0,0.0,0.0
115.725907,0.8282873630523682,-0.6748042702674866,-9.409802436828613,0.0,0.0,0.0
115.825907,0.39780664443969727,-0.9954012632369995,-8.83767318725586,0.0,0.0,0.0
115.925907,0.682896614074707,-0.7415644526481628,-8.644493103027344,0.0,0.0,0.0
116.025906,0.5556755661964417,-0.7000203728675842,-9.368017196655273,0.0,0.0,0.0
116.125907,0.4129820168018341,-0.6454082131385803,-9.122156143188477,0.0,0.0,0.0
116.225907,0.7173343896865845,-0.8611283898353577,-8.973477363586426,0.0,0.0,0.0
116.325907,0.6010825037956238,-0.7510526180267334,-9.867842674255371,0.0,0.0,0.0
116.425907,0.516065776348114,-0.7433614730834961,-9.148201942443848,0.0,0.0,0.0
116.525913,0.6749970316886902,-1.0356178283691406,-8.643162727355957,0.0,0.0,0.0
116.625907,0.7988038659095764,-0.886106014251709,-9.264586448669434,0.0,0.0,0.0
116.725908,0.7345731854438782,-0.5236959457397461,-9.405776023864746,0.0,0.0,0.0
116.825907,0.7644544839859009,-0.9994063377380371,-8.97518539428711,0.0,0.0,0.0
116.925908,0.534842848777771,-1.1314516067504883,-8.65523910522461,0.0,0.0,0.0
117.025909,0.8830054402351379,-0.834926962852478,-9.518550872802734,0.0,0.0,0.0
117.125906,1.0384385585784912,-0.8960646390914917,-9.235255241394043,0.0,0.0,0.0
117.225929,0.8938905000686646,-0.7987056970596313,-9.183077812194824,0.0,0.0,0.0
117.325962,0.5353179574012756,-0.6767555475234985,-9.830770492553711,0.0,0.0,0.0
117.425909,0.5496453046798706,-0.7026711106300354,-9.184565544128418,0.0,0.0,0.0
117.525923,0.6534152030944824,-0.656218409538269,-9.918425559997559,0.0,0.0,0.0
117.625908,0.35082417726516724,-0.8411438465118408,-9.223809242248535,0.0,0.0,0.0
117.726908,0.6046031713485718,-0.6675523519515991,-9.123108863830566,0.0,0.0,0.0
117.825908,0.821854829788208,-0.5537347793579102,-8.846841812133789,0.0,0.0,0.0
117.925907,0.6113152503967285,-0.8302258253097534,-8.572513580322266,0.0,0.0,0.0
118.026907,0.6187515258789062,-0.7263869643211365,-9.73910903930664,0.0,0.0,0.0
118.125907,0.6289810538291931,-0.7323043942451477,-9.049859046936035,0.0,0.0,0.0
118.225909,0.46177494525909424,-0.8823041319847107,-8.910292625427246,0.0,0.0,0.0
118.326907,0.8895444273948669,-0.9924043416976929,-9.081683158874512,0.0,0.0,0.0
118.425907,0.5671080350875854,-0.7863608598709106,-9.742463111877441,0.0,0.0,0.0
118.526907,0.6059269905090332,-0.8384590148925781,-9.279169082641602,0.0,0.0,0.0
118.626909,0.7067829966545105,-1.0329093933105469,-9.360519409179688,0.0,0.0,0.0
118.726909,0.667140543460846,-0.738264262676239,-9.475458145141602,0.0,0.0,0.0
118.826908,0.5313286185264587,-0.7500810623168945,-9.404905319213867,0.0,0.0,0.0
118.926908,0.5239531397819519,-0.6475246548652649,-8.9705228805542,0.0,0.0,0.0
119.026909,0.5255321264266968,-0.7169996500015259,-9.627370834350586,0.0,0.0,0.0
119.126908,0.467763751745224,-0.7104520797729492,-8.791589736938477,0.0,0.0,0.0
119.226907,0.6669073104858398,-0.4580478072166443,-9.116959571838379,0.0,0.0,0.0
119.326915,0.6663724184036255,-0.7411665916442871,-9.009177207946777,0.0,0.0,0.0
119.426926,0.7785836458206177,-0.8793669939041138,-8.638742446899414,0.0,0.0,0.0
119.526936,0.583130955696106,-0.5393878221511841,-8.990119934082031,0.0,0.0,0.0
119.626923,1.0229370594024658,-0.8041788935661316,-9.157068252563477,0.0,0.0,0.0
119.726928,0.633912980556488,-0.8819579482078552,-9.688901901245117,0.0,0.0,0.0
119.827907,0.4997524619102478,-0.7793290019035339,-9.004243850708008,0.0,0.0,0.0
119.926945,0.5310640335083008,-0.9527450799942017,-9.37568473815918,0.0,0.0,0.0
120.026951,0.4436822831630707,-0.8959552049636841,-9.551848411560059,0.0,0.0,0.0
120.126956,0.26200249791145325,-0.8278599381446838,-9.664276123046875,0.0,0.0,0.0
120.226907,0.8370052576065063,-0.8431850075721741,-8.974259376525879,0.0,0.0,0.0
120.326911,0.37506985664367676,-0.8437819480895996,-9.58414077758789,0.0,0.0,0.0
120.426917,0.4537808895111084,-0.5604951977729797,-9.246355056762695,0.0,0.0,0.0
120.526921,0.7605363726615906,-1.1839638948440552,-9.17774772644043,0.0,0.0,0.0
120.626906,0.49697256088256836,-1.0740430355072021,-9.20970344543457,0.0,0.0,0.0
120.726907,0.5566223859786987,-0.9942267537117004,-8.883406639099121,0.0,0.0,0.0
120.826907,0.42996618151664734,-1.0132299661636353,-10.017908096313477,0.0,0.0,0.0
120.926906,0.7208331823348999,-0.5565022230148315,-9.197090148925781,0.0,0.0,0.0
121.026907,0.4454370439052582,-1.1058049201965332,-8.941031455993652,0.0,0.0,0.0
121.126918,0.8340718746185303,-1.322108268737793,-8.287040710449219,0.0,0.0,0.0
121.226906,0.6120851039886475,-0.9262832403182983,-9.051614761352539,0.0,0.0,0.0
121.326907,0.38472723960876465,-0.6813875436782837,-9.824212074279785,0.0,0.0,0.0
121.426907,0.419514536857605,-0.6687465310096741,-10.17689323425293,0.0,0.0,0.0
121.526907,0.35926878452301025,-0.6016334891319275,-9.567253112792969,0.0,0.0,0.0
121.626907,0.5149887204170227,-0.7304769158363342,-8.952781677246094,0.0,0.0,0.0
121.726906,0.420809805393219,-0.6809235215187073,-9.273637771606445,0.0,0.0,0.0
121.826907,0.6616527438163757,-0.8497819900512695,-9.354778289794922,0.0,0.0,0.0
121.926921,0.6468766927719116,-0.8744996786117554,-9.0299072265625,0.0,0.0,0.0
122.026907,0.7790260314941406,-0.8707258701324463,-9.618502616882324,0.0,0.0,0.0
122.126907,0.548159122467041,-0.9987934231758118,-9.408859252929688,0.0,0.0,0.0
122.226907,0.6158181428909302,-1.0477213859558105,-8.940784454345703,0.0,0.0,0.0
122.326906,0.8038201928138733,-0.9863464832305908,-9.178976058959961,0.0,0.0,0.0
122.426907,0.26772040128707886,-1.0190117359161377,-9.29062271118164,0.0,0.0,0.0
122.526907,0.786291241645813,-0.9649209976196289,-9.05130386352539,0.0,0.0,0.0
122.626907,0.7536965012550354,-1.0426650047302246,-9.21412181854248,0.0,0.0,0.0
122.726908,0.5905693173408508,-0.7507080435752869,-9.48823356628418,0.0,0.0,0.0
122.826907,0.5478222966194153,-0.6204516887664795,-10.186739921569824,0.0,0.0,0.0
122.926909,0.8673003315925598,-0.8947606682777405,-9.250539779663086,0.0,0.0,0.0
123.026908,0.49508577585220337,-1.032914400100708,-9.298860549926758,0.0,0.0,0.0
123.12691,0.5604045391082764,-1.139379620552063,-8.56931209564209,0.0,0.0,0.0
123.22691,0.5380710363388062,-1.0157591104507446,-9.09644889831543,0.0,0.0,0.0
123.326907,0.676459550857544,-0.9722727537155151,-9.232102394104004,0.0,0.0,0.0
123.426909,0.8919458985328674,-0.8589392304420471,-9.165184020996094,0.0,0.0,0.0
123.526907,0.7330142855644226,-1.0867228507995605,-9.278863906860352,0.0,0.0,0.0
123.626907,0.6509158611297607,-1.1017308235168457,-8.802239418029785,0.0,0.0,0.0
123.727908,0.6753928065299988,-0.6068257093429565,-9.248383522033691,0.0,0.0,0.0
123.827907,0.49911612272262573,-0.34396547079086304,-9.054364204406738,0.0,0.0,0.0
123.92691,0.7284270524978638,-0.8509256839752197,-9.408825874328613,0.0,0.0,0.0
124.026907,0.20991048216819763,-0.8024157285690308,-9.409133911132812,0.0,0.0,0.0
124.126907,0.6152608394622803,-0.6715434789657593,-9.04930305480957,0.0,0.0,0.0
124.227907,0.3141258656978607,-0.25650548934936523,-10.608451843261719,0.0,0.0,0.0
124.326907,0.3939726948738098,-0.6555427312850952,-9.575305938720703,0.0,0.0,0.0
124.426907,0.727968156337738,-0.7106686234474182,-8.776788711547852,0.0,0.0,0.0
124.527908,0.6254846453666687,-0.8590847253799438,-8.599451065063477,0.0,0.0,0.0
124.627921,0.77289879322052,-0.9248095750808716,-8.32383918762207,0.0,0.0,0.0
124.726909,0.4905747175216675,-1.1179112195968628,-9.05057430267334,0.0,0.0,0.0
124.827907,0.7429631352424622,-1.0499380826950073,-9.128030776977539,0.0,0.0,0.0
124.927907,0.4263017475605011,-0.7484574913978577,-9.70218276977539,0.0,0.0,0.0
125.027907,0.9353827238082886,-0.8468191623687744,-8.826983451843262,0.0,0.0,0.0
125.12791,0.7593498229980469,-0.5511036515235901,-9.053731918334961,0.0,0.0,0.0
125.227913,0.21026349067687988,-0.4215458631515503,-9.592695236206055,0.0,0.0,0.0
125.327907,0.8472473621368408,-0.6947357058525085,-9.769872665405273,0.0,0.0,0.0
125.427907,0.40364933013916016,-0.6880066990852356,-9.083849906921387,0.0,0.0,0.0
125.527907,0.9215962290763855,-0.700223445892334,-9.45546817779541,0.0,0.0,0.0
125.627917,0.20298036932945251,-0.6027634739875793,-9.560941696166992,0.0,0.0,0.0
125.727907,0.7131296992301941,-0.7374972105026245,-9.673270225524902,0.0,0.0,0.0
125.827907,0.5216166973114014,-0.9497212171554565,-8.677654266357422,0.0,0.0,0.0
125.927907,0.46702271699905396,-0.5202378034591675,-9.139236450195312,0.0,0.0,0.0
126.028917,0.8635984659194946,-1.0450892448425293,-9.566206932067871,0.0,0.0,0.0
126.127907,0.6891915202140808,-0.7425662279129028,-9.47796630859375,0.0,0.0,0.0
126.22792,0.7140194773674011,-0.49874022603034973,-9.044601440429688,0.0,0.0,0.0
126.328907,0.4426630139350891,-0.7009071111679077,-9.482292175292969,0.0,0.0,0.0
126.427907,0.62848961353302,-1.041212558746338,-9.13692855834961,0.0,0.0,0.0
126.527907,0.7369078993797302,-0.7485117316246033,-9.220135688781738,0.0,0.0,0.0
126.628907,0.5189709663391113,-0.5149618983268738,-8.997427940368652,0.0,0.0,0.0
126.728907,0.45596790313720703,-0.6889292597770691,-9.212348937988281,0.0,0.0,0.0
126.828909,0.5973841547966003,-0.4746788740158081,-9.583599090576172,0.0,0.0,0.0
126.928913,0.5990381240844727,-0.22176119685173035,-9.805027961730957,0.0,0.0,0.0
127.028947,0.7186114192008972,-0.7246612310409546,-9.12626838684082,0.0,0.0,0.0
127.128905,0.8565353155136108,-0.5230761766433716,-9.475725173950195,0.0,0.0,0.0
127.228907,0.7697661519050598,-0.6847816705703735,-8.685256958007812,0.0,0.0,0.0
127.328913,0.8212847709655762,-0.9500864744186401,-8.430615425109863,0.0,0.0,0.0
127.428928,0.6861546039581299,-0.6275439262390137,-9.07068157196045,0.0,0.0,0.0
127.529907,0.6858066320419312,-0.24075725674629211,-9.572153091430664,0.0,0.0,0.0
127.629907,0.8272421360015869,-0.18970099091529846,-9.706181526184082,0.0,0.0,0.0
127.72891,0.9560465812683105,-0.5563565492630005,-9.093597412109375,0.0,0.0,0.0
127.829908,0.727846622467041,-0.5842355489730835,-8.9086275100708,0.0,0.0,0.0
127.929907,0.8669698238372803,-0.3220090866088867,-9.613401412963867,0.0,0.0,0.0
128.029907,0.7818738222122192,-0.4202462434768677,-9.686455726623535,0.0,0.0,0.0
128.12891,0.6856056451797485,-0.43252021074295044,-9.120403289794922,0.0,0.0,0.0
128.229908,0.5829440355300903,-0.34416159987449646,-9.235391616821289,0.0,0.0,0.0
128.328907,0.5919559597969055,-0.5207691192626953,-9.320507049560547,0.0,0.0,0.0
128.429909,0.42768746614456177,-0.5034326314926147,-9.564494132995605,0.0,0.0,0.0
128.529907,0.5416194200515747,-0.28196462988853455,-8.803108215332031,0.0,0.0,0.0
128.629907,0.6310586929321289,-0.4848840832710266,-8.892635345458984,0.0,0.0,0.0
128.728907,0.7367376089096069,-0.5666218996047974,-8.74731731414795,0.0,0.0,0.0
128.829907,0.5027774572372437,-0.32703733444213867,-9.496335983276367,0.0,0.0,0.0
128.929907,0.5591027140617371,-0.4382355809211731,-9.271103858947754,0.0,0.0,0.0
129.029907,0.8443100452423096,-0.610625684261322,-8.672409057617188,0.0,0.0,0.0
129.129907,0.8768292665481567,-0.4906282424926758,-9.102643966674805,0.0,0.0,0.0
129.229908,0.7320276498794556,-0.5403217077255249,-9.200349807739258,0.0,0.0,0.0
129.329907,0.4661446213722229,-0.7539674043655396,-9.131089210510254,0.0,0.0,0.0
129.429923,0.44829365611076355,-0.6686211228370667,-9.106649398803711,0.0,0.0,0.0
129.529907,0.5320358276367188,-0.3804442882537842,-9.167791366577148,0.0,0.0,0.0
129.630907,0.5614330172538757,-0.5521644353866577,-9.290409088134766,0.0,0.0,0.0
129.729914,0.6426807641983032,-0.33595362305641174,-9.626059532165527,0.0,0.0,0.0
129.829911,0.7212836742401123,-0.1006191074848175,-9.727527618408203,0.0,0.0,0.0
129.929908,0.8590497970581055,-0.36385947465896606,-9.200183868408203,0.0,0.0,0.0
130.029907,0.5764901041984558,-0.5825737118721008,-8.647050857543945,0.0,0.0,0.0
130.129908,0.5015740990638733,-0.9110828042030334,-9.152080535888672,0.0,0.0,0.0
130.229908,0.6291099190711975,-0.5442678928375244,-9.080913543701172,0.0,0.0,0.0
130.330908,0.6737229824066162,-0.31457656621932983,-9.489192962646484,0.0,0.0,0.0
130.429911,0.6074907779693604,-0.5818560123443604,-10.079146385192871,0.0,0.0,0.0
130.529912,0.3745233416557312,-0.4878283143043518,-10.058125495910645,0.0,0.0,0.0
130.629917,0.6378226280212402,-0.7995648980140686,-8.406952857971191,0.0,0.0,0.0
130.729907,0.5097525715827942,-0.7070238590240479,-8.984585762023926,0.0,0.0,0.0
130.830907,0.7880575656890869,-0.6360422372817993,-8.911285400390625,0.0,0.0,0.0
130.930909,0.6403635740280151,-0.7921167612075806,-9.992016792297363,0.0,0.0,0.0
131.029912,0.37374427914619446,-0.6880156993865967,-10.008355140686035,0.0,0.0,0.0
131.129906,0.2249705046415329,-0.6917001008987427,-9.22904109954834,0.0,0.0,0.0
131.230908,0.6583542823791504,-0.6713019609451294,-8.649774551391602,0.0,0.0,0.0
131.330954,0.8998485803604126,-0.632234513759613,-9.030904769897461,0.0,0.0,0.0
131.430906,0.38392725586891174,-0.7928664684295654,-9.77808952331543,0.0,0.0,0.0
131.530947,0.5324129462242126,-1.0911246538162231,-8.790166854858398,0.0,0.0,0.0
131.630907,0.4673556089401245,-1.0076520442962646,-8.694806098937988,0.0,0.0,0.0
131.730907,0.6988013386726379,-1.0420877933502197,-9.664690971374512,0.0,0.0,0.0
131.830907,0.7026094198226929,-0.8995324373245239,-8.99334716796875,0.0,0.0,0.0
131.930907,0.42117536067962646,-1.064121127128601,-9.772316932678223,0.0,0.0,0.0
132.030907,0.6373792290687561,-1.0686746835708618,-8.975618362426758,0.0,0.0,0.0
132.130907,0.5566176176071167,-0.9679325819015503,-9.03004264831543,0.0,0.0,0.0
132.230908,0.2604345977306366,-0.6444299817085266,-9.053297996520996,0.0,0.0,0.0
132.330907,0.3607918620109558,-0.8402562141418457,-8.899014472961426,0.0,0.0,0.0
132.430906,0.4570082724094391,-0.7874008417129517,-9.920429229736328,0.0,0.0,0.0
132.530906,0.9224860668182373,-0.7630045413970947,-9.052489280700684,0.0,0.0,0.0
132.630907,0.5375781059265137,-0.7209253311157227,-9.256959915161133,0.0,0.0,0.0
132.730907,0.5240034461021423,-0.8429479002952576,-9.1617431640625,0.0,0.0,0.0
132.830907,0.30977457761764526,-0.816109299659729,-8.473416328430176,0.0,0.0,0.0
132.930907,0.5173300504684448,-1.1588530540466309,-9.273275375366211,0.0,0.0,0.0
133.030907,0.4243766963481903,-0.6736311316490173,-9.928827285766602,0.0,0.0,0.0
133.130907,0.491291880607605,-0.6016919612884521,-9.190787315368652,0.0,0.0,0.0
133.230907,0.6113659739494324,-0.9318165183067322,-9.608353614807129,0.0,0.0,0.0
133.331912,0.44264912605285645,-0.8118197917938232,-9.380054473876953,0.0,0.0,0.0
133.430907,0.5475295782089233,-0.5285913348197937,-9.403691291809082,0.0,0.0,0.0
133.530907,0.9874284267425537,-0.8847742676734924,-8.814515113830566,0.0,0.0,0.0
133.630907,0.45971763134002686,-0.9237332940101624,-9.428227424621582,0.0,0.0,0.0
133.730906,0.04812130331993103,-0.7188636064529419,-10.354166030883789,0.0,0.0,0.0
133.830907,0.5980725884437561,-0.937256395816803,-8.916078567504883,0.0,0.0,0.0
133.930907,0.9017853736877441,-0.7079917192459106,-9.200080871582031,0.0,0.0,0.0
134.030907,0.5803747773170471,-0.9123164415359497,-8.887527465820312,0.0,0.0,0.0
134.130907,0.723744809627533,-0.7269606590270996,-9.023160934448242,0.0,0.0,0.0
134.230907,0.8907434940338135,-0.7834482789039612,-9.171874046325684,0.0,0.0,0.0
134.330906,0.6639364957809448,-0.9776325821876526,-9.96419906616211,0.0,0.0,0.0
134.430907,0.5458720326423645,-0.9941079616546631,-9.288192749023438,0.0,0.0,0.0
134.530907,0.41165900230407715,-0.7770667672157288,-9.02470588684082,0.0,0.0,0.0
134.630907,0.7155797481536865,-0.8569310307502747,-9.098880767822266,0.0,0.0,0.0
134.730907,0.5593529939651489,-0.7824119329452515,-9.32972240447998,0.0,0.0,0.0
134.830907,0.6781855821609497,-0.4162335991859436,-9.388565063476562,0.0,0.0,0.0
134.930907,0.8153091073036194,-0.4144168496131897,-9.813578605651855,0.0,0.0,0.0
135.030907,0.6016109585762024,-0.8023317456245422,-9.435163497924805,0.0,0.0,0.0
135.130907,0.5999011993408203,-0.8173446655273438,-9.023971557617188,0.0,0.0,0.0
135.230912,0.7933606505393982,-1.0860111713409424,-8.794727325439453,0.0,0.0,0.0
135.33091,0.46209916472435,-0.8262289762496948,-8.928189277648926,0.0,0.0,0.0
135.430906,0.6011603474617004,-1.0112342834472656,-9.598804473876953,0.0,0.0,0.0
135.530907,0.9215887784957886,-1.2052276134490967,-9.045619010925293,0.0,0.0,0.0
135.630909,0.3690986931324005,-0.6011493802070618,-9.579662322998047,-0.013941527344286442,-0.10791787505149841,0.018745217472314835
135.730907,0.6712547540664673,-0.6338109970092773,-9.438821792602539,-0.050435736775398254,-0.04233946651220322,0.04683203995227814
135.830925,0.7514485120773315,-1.0108249187469482,-9.09823226928711,0.12997430562973022,-0.0644526481628418,0.059780776500701904
135.930907,0.4308658242225647,-0.6583076119422913,-9.424530982971191,0.0,0.0,0.0
136.030911,0.3038531243801117,-0.8676414489746094,-9.159006118774414,-0.02326365001499653,-0.14380726218223572,0.06397628039121628
136.130907,0.6321190595626831,-0.9667314291000366,-9.635113716125488,-0.13088715076446533,0.08940260857343674,0.04805293679237366
136.231907,0.4429786205291748,-0.5701045989990234,-10.145256042480469,0.0,0.0,0.0
136.330908,0.6920422911643982,-0.7648447751998901,-9.35699462890625,0.1141243651509285,-0.038582246750593185,0.03287892788648605
136.430911,0.8254817724227905,-0.7989984750747681,-8.977102279663086,0.053078602999448776,-0.04280827194452286,0.035425301641225815
136.53091,0.744308352470398,-0.7411399483680725,-9.33896255493164,-0.09588988125324249,0.10038666427135468,0.021519698202610016
136.630907,0.6686132550239563,-0.8003998398780823,-9.276823997497559,0.02230214886367321,-0.08736950904130936,0.02971123345196247
136.730907,0.6171371936798096,-0.7649332284927368,-9.14107894897461,-0.0638829842209816,-0.0027088169008493423,0.04349791258573532
136.83092,0.8268489837646484,-0.6446123123168945,-9.61989688873291,-0.12073905766010284,-0.03975759446620941,0.033273495733737946
136.930907,0.5569705367088318,-0.8883816003799438,-9.119848251342773,-0.01579735428094864,0.0600220151245594,0.03726349398493767
137.03091,0.7090852856636047,-0.9892253875732422,-9.558961868286133,0.07959754765033722,-0.12542468309402466,0.055201366543769836
137.130907,0.6387271285057068,-0.4895803928375244,-9.127603530883789,0.007824382744729519,0.01278782170265913,0.0360146164894104
137.231907,0.669830322265625,-0.6499951481819153,-9.972186088562012,0.0,0.0,0.0
137.331923,0.6336034536361694,-0.7450391054153442,-9.775972366333008,0.0,0.0,0.0
137.431907,0.5551303029060364,-0.9561523199081421,-9.014653205871582,0.0,0.0,0.0
137.531948,0.765228271484375,-0.7936458587646484,-9.052227973937988,0.0,0.0,0.0
137.631937,0.7814846634864807,-0.5795720219612122,-9.595293045043945,0.0,0.0,0.0
137.731921,0.6829397678375244,-0.8979592323303223,-8.876001358032227,0.0,0.0,0.0
137.831918,0.673049807548523,-0.673579752445221,-8.571264266967773,0.0,0.0,0.0
137.931906,0.8907701969146729,-1.0177770853042603,-8.668007850646973,0.0,0.0,0.0
138.031907,0.9509057402610779,-0.8962565064430237,-9.103806495666504,0.0,0.0,0.0
138.131907,0.503247857093811,-0.9284809827804565,-9.65665054321289,0.0,0.0,0.0
138.231908,0.6247825622558594,-0.5644233822822571,-8.802456855773926,0.0,0.0,0.0
138.331907,0.700140655040741,-0.32854384183883667,-9.276573181152344,0.0,0.0,0.0
138.431907,0.9796087741851807,-0.758414626121521,-9.207992553710938,0.0,0.0,0.0
138.531907,0.33558180928230286,-0.7932970523834229,-9.370275497436523,0.0,0.0,0.0
138.631907,0.4850987195968628,-0.5848934650421143,-8.98312759399414,0.0,0.0,0.0
138.731907,1.0191731452941895,-0.7671582698822021,-9.181167602539062,0.0,0.0,0.0
138.831912,0.26662176847457886,-0.4874039888381958,-10.471549987792969,0.0,0.0,0.0
138.931907,0.35587459802627563,-0.6242713332176208,-9.227398872375488,0.0,0.0,0.0
139.031907,0.922633707523346,-0.8495556712150574,-9.209705352783203,0.0,0.0,0.0
139.131906,0.8967829942703247,-0.8411285281181335,-8.670428276062012,0.0,0.0,0.0
139.231907,0.5214676260948181,-1.0507968664169312,-8.602012634277344,0.0,0.0,0.0
139.331907,0.6500644087791443,-0.7304767966270447,-9.28994369506836,0.0,0.0,0.0
139.432908,0.8711450099945068,-0.6774235963821411,-9.693325996398926,0.0,0.0,0.0
139.531907,0.46555402874946594,-0.4718928933143616,-9.468412399291992,0.0,0.0,0.0
139.63291,0.7030459046363831,-0.9376491904258728,-8.813366889953613,0.0,0.0,0.0
139.731906,0.7818695902824402,-0.7451237440109253,-8.667449951171875,0.0,0.0,0.0
139.831907,0.6010416746139526,-0.31199395656585693,-9.762044906616211,0.0,0.0,0.0
139.931906,1.219078540802002,-0.799352765083313,-8.728586196899414,0.0,0.0,0.0
140.03191,0.6752972602844238,-0.9454695582389832,-9.00417423248291,0.0,0.0,0.0
140.131909,0.22744151949882507,-0.5217415690422058,-10.496030807495117,0.0,0.0,0.0
140.231907,0.5526271462440491,-0.5658430457115173,-9.967939376831055,0.0,0.0,0.0
140.33291,0.9739530682563782,-0.656735897064209,-9.089096069335938,0.0,0.0,0.0
140.431916,0.8743163347244263,-0.6651594638824463,-9.052711486816406,0.0,0.0,0.0
140.531907,0.7278499603271484,-0.8974449038505554,-8.617427825927734,0.0,0.0,0.0
140.632907,0.8537101745605469,-0.5631588697433472,-9.2007474899292,0.0,0.0,0.0
140.732907,0.9183312654495239,-0.4111795723438263,-9.461197853088379,0.0,0.0,0.0
140.831927,0.9173285961151123,-0.5310909748077393,-9.16766357421875,0.040465518832206726,0.0340331494808197,0.07344754785299301
140.932907,0.721808671951294,-0.7633377909660339,-9.441755294799805,0.0,0.0,0.0
141.03291,0.6679161190986633,-0.586300253868103,-9.040146827697754,0.0,0.0,0.0
141.132907,0.8609693050384521,-0.619051456451416,-9.469088554382324,0.0,0.0,0.0
141.232907,0.6495382785797119,-0.5962945222854614,-10.073211669921875,0.0,0.0,0.0
141.332907,0.7542169094085693,-0.683376133441925,-8.780789375305176,0.0,0.0,0.0
141.432928,0.6289855241775513,-0.44741830229759216,-9.699894905090332,0.0,0.0,0.0
141.532908,0.6262320876121521,-0.5285128355026245,-10.06281852722168,0.0,0.0,0.0
141.632908,0.6214786767959595,-0.8150032162666321,-8.953367233276367,0.0,0.0,0.0
141.732907,0.8853600025177002,-1.1083292961120605,-8.630711555480957,0.0,0.0,0.0
141.832908,0.8275049924850464,-1.1748683452606201,-8.307838439941406,0.0,0.0,0.0
141.932912,0.684331476688385,-1.3384171724319458,-8.81049919128418,0.0,0.0,0.0
142.032907,0.7911462783813477,-0.7926611304283142,-9.642369270324707,0.0,0.0,0.0
142.133907,0.4318373203277588,-0.5589561462402344,-9.565174102783203,0.0,0.0,0.0
142.232907,0.47555357217788696,-0.8065780401229858,-9.320255279541016,0.0,0.0,0.0
142.333907,0.6823157072067261,-0.6206498146057129,-9.188743591308594,0.0,0.0,0.0
142.432907,0.10812193155288696,-0.2565354108810425,-10.175017356872559,0.0,0.0,0.0
142.532907,0.6651803255081177,-0.5754806995391846,-9.174131393432617,0.0,0.0,0.0
142.632913,0.4916048049926758,-0.9366152286529541,-9.33108139038086,0.0,0.0,0.0
142.732907,0.27432170510292053,-0.7216929197311401,-9.328167915344238,0.0,0.0,0.0
142.833917,0.6329160332679749,-1.0415395498275757,-9.17902946472168,0.0,0.0,0.0
142.932907,0.6611683368682861,-1.3132975101470947,-9.074922561645508,0.0,0.0,0.0
143.032908,0.502405047416687,-1.065752625465393,-8.607357025146484,0.0,0.0,0.0
143.132907,1.0388364791870117,-1.1474649906158447,-8.784290313720703,0.0,0.0,0.0
143.232907,0.6527813673019409,-1.0404483079910278,-8.670105934143066,0.0,0.0,0.0
143.332907,0.6103360056877136,-0.7312252521514893,-9.18595027923584,0.0,0.0,0.0
143.432907,0.7215494513511658,-0.689530611038208,-9.678817749023438,0.0,0.0,0.0
143.532907,0.600052535533905,-1.161812663078308,-9.076367378234863,0.0,0.0,0.0
143.632907,0.19511020183563232,-0.5809409022331238,-9.478102684020996,0.0,0.0,0.0
143.732907,0.6936371326446533,-0.939929723739624,-8.843990325927734,0.0,0.0,0.0
143.833909,0.49565157294273376,-0.6850977540016174,-9.192834854125977,0.0,0.0,0.0
143.933908,0.5401613116264343,-1.0894296169281006,-9.116281509399414,0.0,0.0,0.0
144.033909,0.6565954685211182,-0.7302643060684204,-9.51315689086914,0.0,0.0,0.0
144.133941,0.2996564507484436,-0.8217071890830994,-10.286709785461426,0.0,0.0,0.0
144.233952,0.6162139773368835,-0.9379753470420837,-9.124719619750977,0.0,0.0,0.0
144.333904,0.25878602266311646,-1.0844837427139282,-9.356287956237793,0.0,0.0,0.0
144.433945,0.1965133249759674,-0.7332748770713806,-9.214078903198242,0.0,0.0,0.0
